External Temperature (C), Barometric Pressure (Pa), Acceleration X, Acceleration Y, Acceleration Z
25.13, 101646.95, 0.21,-0.50, 9.56, 2136
25.13, 101646.95, 0.23,-0.54, 9.58, 2148
25.13, 101645.69, 0.21,-0.56, 9.54, 2152
25.13, 101645.69, 0.21,-0.54, 9.60, 2157
25.13, 101645.69, 0.23,-0.56, 9.58, 2162
25.13, 101645.69, 0.15,-0.57, 9.60, 2167
25.13, 101645.69, 0.21,-0.57, 9.81, 2172
25.13, 101645.69, 0.21,-0.61, 9.56, 2177
25.13, 101645.69, 0.21,-0.59, 9.71, 2182
25.13, 101645.62, 0.21,-0.59, 9.62, 2187
25.13, 101645.62, 0.21,-0.59, 9.66, 2192
25.13, 101645.62, 0.13,-0.56, 9.71, 2197
25.13, 101645.62, 0.15,-0.56, 9.66, 2202
25.13, 101645.62, 0.21,-0.59, 9.62, 2207
25.13, 101645.62, 0.25,-0.57, 9.58, 2212
25.13, 101645.62, 0.21,-0.65, 9.62, 2217
25.13, 101643.64, 0.23,-0.59, 9.60, 2222
25.13, 101643.64, 0.25,-0.63, 9.67, 2227
25.13, 101643.64, 0.21,-0.61, 9.60, 2232
25.13, 101643.64, 0.19,-0.59, 9.64, 2237
25.13, 101643.64, 0.23,-0.57, 9.60, 2242
25.13, 101643.64, 0.21,-0.61, 9.60, 2247
25.13, 101643.64, 0.13,-0.54, 9.64, 2252
25.13, 101644.55, 0.23,-0.57, 9.64, 2257
25.13, 101644.55, 0.23,-0.54, 9.60, 2262
25.13, 101644.55, 0.19,-0.52, 9.64, 2267
25.13, 101644.55, 0.17,-0.54, 9.66, 2272
25.13, 101644.55, 0.23,-0.57, 9.58, 2277
25.13, 101644.55, 0.23,-0.52, 9.58, 2282
25.13, 101644.55, 0.23,-0.50, 9.52, 2287
25.13, 101646.02, 0.17,-0.56, 9.60, 2292
25.13, 101646.02, 0.21,-0.54, 9.60, 2297
25.13, 101646.02, 0.21,-0.59, 9.64, 2302
25.13, 101646.02, 0.13,-0.57, 9.52, 2307
25.13, 101646.02, 0.23,-0.59, 9.71, 2312
25.13, 101646.02, 0.17,-0.56, 9.71, 2317
25.13, 101646.02, 0.23,-0.52, 9.71, 2322
25.13, 101648.00, 0.27,-0.59, 9.54, 2327
25.13, 101648.00, 0.19,-0.57, 9.66, 2332
25.13, 101648.00, 0.21,-0.57, 9.58, 2337
25.13, 101648.00, 0.23,-0.63, 9.60, 2342
25.13, 101648.00, 0.17,-0.59, 9.64, 2347
25.13, 101648.00, 0.25,-0.52, 9.58, 2352
25.13, 101648.00, 0.15,-0.59, 9.66, 2357
25.13, 101648.00, 0.23,-0.57, 9.62, 2362
25.13, 101647.19, 0.17,-0.61, 9.69, 2367
25.13, 101647.19, 0.11,-0.59, 9.67, 2372
25.13, 101647.19, 0.23,-0.56, 9.64, 2377
25.13, 101647.19, 0.21,-0.59, 9.62, 2382
25.13, 101647.19, 0.23,-0.59, 9.60, 2387
25.13, 101647.19, 0.21,-0.59, 9.50, 2392
25.13, 101647.19, 0.19,-0.56, 9.62, 2397
25.13, 101645.38, 0.29,-0.56, 9.62, 2402
25.13, 101645.38, 0.27,-0.54, 9.64, 2407
25.13, 101645.38, 0.25,-0.57, 9.58, 2412
25.13, 101645.38, 0.17,-0.56, 9.71, 2417
25.13, 101645.38, 0.25,-0.56, 9.52, 2422
25.13, 101645.38, 0.23,-0.54, 9.67, 2427
25.13, 101645.38, 0.21,-0.54, 9.66, 2432
25.13, 101644.80, 0.33,-0.59, 9.67, 2437
25.13, 101644.80, 0.23,-0.52, 9.69, 2442
25.13, 101644.80, 0.25,-0.57, 9.58, 2447
25.13, 101644.80, 0.27,-0.54, 9.54, 2452
25.13, 101644.80, 0.21,-0.61, 9.69, 2457
25.13, 101644.80, 0.21,-0.54, 9.56, 2462
25.13, 101644.80, 0.23,-0.61, 9.62, 2467
25.13, 101646.03, 0.23,-0.56, 9.54, 2472
25.13, 101646.03, 0.25,-0.54, 9.64, 2477
25.13, 101646.03, 0.21,-0.54, 9.54, 2482
25.13, 101646.03, 0.21,-0.54, 9.75, 2487
25.13, 101646.03, 0.27,-0.57, 9.62, 2492
25.13, 101646.03, 0.21,-0.54, 9.62, 2497
25.13, 101646.03, 0.23,-0.54, 9.71, 2502
25.13, 101641.92, 0.27,-0.57, 9.58, 2507
25.13, 101641.92, 0.27,-0.54, 9.69, 2512
25.13, 101641.92, 0.19,-0.63, 9.66, 2517
25.13, 101641.92, 0.23,-0.67, 9.71, 2522
25.13, 101641.92, 0.15,-0.65, 9.69, 2527
25.13, 101641.92, 0.21,-0.61, 9.69, 2532
25.13, 101641.92, 0.23,-0.56, 9.83, 2537
25.13, 101644.55, 0.19,-0.48, 9.71, 2542
25.13, 101644.55, 0.23,-0.56, 9.66, 2547
25.13, 101644.55, 0.13,-0.52, 9.60, 2552
25.13, 101644.55, 0.19,-0.57, 9.66, 2557
25.13, 101644.55, 0.13,-0.56, 9.60, 2562
25.13, 101644.55, 0.19,-0.54, 9.77, 2567
25.13, 101644.55, 0.17,-0.57, 9.66, 2572
25.13, 101642.75, 0.23,-0.52, 9.67, 2577
25.13, 101642.75, 0.29,-0.54, 9.58, 2582
25.13, 101642.75, 0.27,-0.57, 9.66, 2587
25.13, 101642.75, 0.27,-0.59, 9.58, 2592
25.13, 101642.75, 0.27,-0.63, 9.62, 2597
25.13, 101642.75, 0.31,-0.56, 9.62, 2602
25.13, 101642.75, 0.31,-0.56, 9.62, 2607
25.13, 101645.13, 0.25,-0.54, 9.62, 2612
25.13, 101645.13, 0.27,-0.65, 9.69, 2617
25.13, 101645.13, 0.19,-0.59, 9.58, 2622
25.13, 101645.13, 0.25,-0.57, 9.54, 2627
25.13, 101645.13, 0.25,-0.57, 9.46, 2632
25.13, 101645.13, 0.19,-0.71, 9.58, 2637
25.13, 101645.13, 0.15,-0.59, 9.56, 2642
25.13, 101645.52, 0.23,-0.61, 9.56, 2650
25.13, 101645.52, 0.21,-0.59, 9.60, 2654
25.13, 101645.52, 0.21,-0.56, 9.58, 2659
25.13, 101645.52, 0.23,-0.57, 9.56, 2664
25.13, 101645.52, 0.29,-0.57, 9.60, 2669
25.13, 101645.52, 0.23,-0.57, 9.58, 2674
25.13, 101645.52, 0.15,-0.63, 9.67, 2679
25.13, 101646.52, 0.15,-0.54, 9.62, 2684
25.13, 101646.52, 0.21,-0.56, 9.62, 2689
25.13, 101646.52, 0.23,-0.57, 9.62, 2694
25.13, 101646.52, 0.25,-0.56, 9.66, 2699
25.13, 101646.52, 0.23,-0.57, 9.62, 2704
25.13, 101646.52, 0.25,-0.56, 9.62, 2709
25.13, 101646.52, 0.23,-0.56, 9.58, 2714
25.13, 101643.88, 0.23,-0.56, 9.64, 2719
25.13, 101643.88, 0.31,-0.56, 9.62, 2724
25.13, 101643.88, 0.17,-0.59, 9.64, 2729
25.13, 101643.88, 0.19,-0.50, 9.71, 2734
25.13, 101643.88, 0.25,-0.56, 9.85, 2739
25.13, 101643.88, 0.31,-0.57, 9.67, 2744
25.13, 101643.88, 0.25,-0.57, 9.56, 2749
25.13, 101645.52, 0.23,-0.54, 9.64, 2754
25.13, 101645.52, 0.23,-0.56, 9.62, 2759
25.13, 101645.52, 0.21,-0.57, 9.64, 2764
25.13, 101645.52, 0.13,-0.59, 9.64, 2769
25.13, 101645.52, 0.10,-0.57, 9.69, 2774
25.13, 101645.52, 0.21,-0.52, 9.66, 2779
25.13, 101645.52, 0.21,-0.57, 9.64, 2784
25.13, 101644.80, 0.19,-0.63, 9.56, 2789
25.13, 101644.80, 0.19,-0.63, 9.60, 2794
25.13, 101644.80, 0.21,-0.59, 9.71, 2799
25.13, 101644.80, 0.21,-0.52, 9.71, 2804
25.13, 101644.80, 0.19,-0.56, 9.64, 2809
25.13, 101644.80, 0.17,-0.57, 9.62, 2814
25.13, 101644.80, 0.19,-0.61, 9.64, 2819
25.13, 101646.95, 0.17,-0.56, 9.62, 2824
25.13, 101646.95, 0.25,-0.61, 9.60, 2829
25.13, 101646.95, 0.17,-0.59, 9.62, 2834
25.13, 101646.95, 0.13,-0.61, 9.66, 2839
25.13, 101646.95, 0.19,-0.63, 9.39, 2844
25.13, 101646.95, 0.23,-0.57, 9.79, 2849
25.13, 101646.95, 0.25,-0.54, 9.81, 2854
25.13, 101648.77, 0.29,-0.44, 9.45, 2859
25.13, 101647.01, 0.11,-0.56, 9.75, 2864
25.13, 101647.01, 0.15,-0.57, 9.83, 2869
25.13, 101647.01, 0.25,-0.54, 9.75, 2874
25.13, 101647.01, 0.29,-0.57, 9.71, 2879
25.13, 101647.01, 0.27,-0.63, 9.58, 2884
25.13, 101647.01, 0.25,-0.59, 9.54, 2889
25.13, 101647.01, 0.23,-0.54, 9.67, 2894
25.13, 101644.80, 0.25,-0.56, 9.73, 2899
25.13, 101644.80, 0.19,-0.57, 9.69, 2904
25.13, 101644.80, 0.23,-0.52, 9.62, 2909
25.13, 101644.80, 0.23,-0.57, 9.60, 2914
25.13, 101644.80, 0.25,-0.54, 9.73, 2919
25.13, 101644.80, 0.23,-0.56, 9.64, 2924
25.13, 101644.80, 0.27,-0.57, 9.60, 2929
25.13, 101645.02, 0.17,-0.61, 9.58, 2934
25.13, 101645.02, 0.25,-0.52, 9.64, 2939
25.13, 101645.02, 0.17,-0.48, 9.64, 2944
25.13, 101645.02, 0.23,-0.56, 9.71, 2949
25.13, 101645.02, 0.17,-0.61, 9.60, 2954
25.13, 101645.02, 0.23,-0.59, 9.67, 2959
25.13, 101645.02, 0.29,-0.57, 9.62, 2964
25.13, 101646.52, 0.25,-0.52, 9.56, 2969
25.13, 101646.52, 0.17,-0.57, 9.66, 2974
25.13, 101646.52, 0.27,-0.57, 9.54, 2979
25.13, 101646.52, 0.19,-0.61, 9.48, 2984
25.13, 101646.52, 0.31,-0.61, 9.69, 2989
25.13, 101646.52, 0.17,-0.63, 9.66, 2994
25.13, 101646.52, 0.13,-0.65, 9.62, 2999
25.13, 101644.53, 0.17,-0.59, 9.66, 3004
25.13, 101644.53, 0.19,-0.57, 9.62, 3009
25.13, 101644.53, 0.25,-0.63, 9.66, 3014
25.13, 101644.53, 0.23,-0.54, 9.45, 3019
25.13, 101644.53, 0.23,-0.56, 9.66, 3024
25.13, 101644.53, 0.27,-0.57, 9.56, 3029
25.13, 101644.53, 0.23,-0.59, 9.66, 3034
25.13, 101645.19, 0.23,-0.57, 9.58, 3039
25.13, 101645.19, 0.27,-0.57, 9.58, 3044
25.13, 101645.19, 0.21,-0.61, 9.60, 3049
25.13, 101645.19, 0.23,-0.57, 9.67, 3054
25.13, 101645.19, 0.29,-0.56, 9.58, 3059
25.13, 101645.19, 0.25,-0.54, 9.56, 3064
25.13, 101645.19, 0.23,-0.56, 9.66, 3069
25.13, 101644.86, 0.21,-0.54, 9.48, 3074
25.13, 101644.86, 0.19,-0.52, 9.46, 3079
25.13, 101644.86, 0.25,-0.57, 9.52, 3084
25.13, 101644.86, 0.27,-0.61, 9.35, 3089
25.13, 101644.86, 0.21,-0.63, 9.60, 3094
25.13, 101644.86, 0.21,-0.52, 9.85, 3099
25.13, 101644.86, 0.25,-0.54, 9.69, 3104
25.13, 101644.47, 0.29,-0.54, 9.64, 3109
25.13, 101644.47, 0.33,-0.57, 9.64, 3114
25.13, 101644.47, 0.19,-0.57, 9.62, 3119
25.13, 101644.47, 0.29,-0.54, 9.73, 3124
25.13, 101644.47, 0.25,-0.57, 9.66, 3129
25.13, 101644.47, 0.19,-0.61, 9.67, 3134
25.13, 101644.47, 0.21,-0.56, 9.66, 3139
25.13, 101645.85, 0.19,-0.61, 9.60, 3144
25.13, 101645.85, 0.17,-0.59, 9.60, 3152
25.13, 101645.85, 0.23,-0.54, 9.60, 3156
25.13, 101645.85, 0.17,-0.59, 9.54, 3161
25.13, 101645.85, 0.23,-0.57, 9.62, 3166
25.13, 101645.85, 0.23,-0.56, 9.62, 3171
25.13, 101645.85, 0.19,-0.54, 9.54, 3176
25.13, 101647.28, 0.19,-0.50, 9.64, 3181
25.13, 101647.28, 0.19,-0.52, 9.60, 3186
25.13, 101647.28, 0.23,-0.56, 9.69, 3191
25.13, 101647.28, 0.21,-0.54, 9.43, 3196
25.13, 101647.28, 0.17,-0.56, 9.52, 3201
25.13, 101647.28, 0.27,-0.56, 9.62, 3206
25.13, 101647.28, 0.23,-0.54, 9.60, 3211
25.13, 101642.72, 0.29,-0.54, 9.64, 3216
25.13, 101642.72, 0.27,-0.52, 9.67, 3221
25.13, 101642.72, 0.21,-0.57, 9.60, 3226
25.13, 101642.72, 0.29,-0.52, 9.60, 3231
25.13, 101642.72, 0.31,-0.57, 9.62, 3236
25.13, 101642.72, 0.25,-0.57, 9.62, 3241
25.13, 101642.72, 0.25,-0.61, 9.62, 3246
25.13, 101644.31, 0.23,-0.65, 9.62, 3251
25.13, 101644.31, 0.23,-0.61, 9.60, 3256
25.13, 101644.31, 0.19,-0.61, 9.60, 3261
25.13, 101644.31, 0.21,-0.54, 9.66, 3266
25.13, 101644.31, 0.23,-0.57, 9.56, 3271
25.13, 101644.31, 0.19,-0.56, 9.62, 3276
25.13, 101644.31, 0.25,-0.54, 9.58, 3281
25.13, 101644.14, 0.17,-0.67, 9.64, 3286
25.13, 101644.14, 0.25,-0.63, 9.69, 3291
25.13, 101644.14, 0.27,-0.57, 9.90, 3296
25.13, 101644.14, 0.23,-0.61, 9.71, 3301
25.13, 101644.14, 0.25,-0.57, 9.73, 3306
25.13, 101644.14, 0.15,-0.57, 9.67, 3311
25.13, 101644.14, 0.13,-0.56, 9.73, 3316
25.13, 101644.53, 0.19,-0.52, 9.67, 3321
25.13, 101644.53, 0.11,-0.54, 9.60, 3326
25.13, 101644.53, 0.13,-0.59, 9.64, 3331
25.13, 101644.53, 0.21,-0.59, 9.56, 3336
25.13, 101644.53, 0.21,-0.46, 9.58, 3341
25.13, 101644.53, 0.21,-0.54, 9.62, 3346
25.13, 101644.53, 0.21,-0.52, 9.67, 3351
25.13, 101646.67, 0.19,-0.54, 9.60, 3356
25.13, 101644.88, 0.25,-0.52, 9.66, 3361
25.13, 101644.88, 0.27,-0.54, 9.66, 3366
25.13, 101644.88, 0.29,-0.57, 9.66, 3371
25.13, 101644.88, 0.25,-0.56, 9.67, 3376
25.13, 101644.88, 0.25,-0.59, 9.62, 3381
25.13, 101644.88, 0.23,-0.57, 9.64, 3386
25.13, 101644.88, 0.23,-0.56, 9.62, 3391
25.13, 101646.52, 0.13,-0.59, 9.60, 3396
25.13, 101646.52, 0.25,-0.56, 9.64, 3401
25.13, 101646.52, 0.25,-0.52, 9.71, 3406
25.13, 101646.52, 0.21,-0.56, 9.69, 3411
25.13, 101646.52, 0.29,-0.57, 9.66, 3416
25.13, 101646.52, 0.27,-0.52, 9.67, 3421
25.13, 101646.52, 0.23,-0.59, 9.66, 3426
25.13, 101643.93, 0.25,-0.56, 9.58, 3431
25.13, 101643.93, 0.19,-0.61, 9.62, 3436
25.13, 101643.93, 0.21,-0.61, 9.67, 3441
25.13, 101643.93, 0.25,-0.56, 9.67, 3446
25.13, 101643.93, 0.23,-0.61, 9.66, 3451
25.13, 101643.93, 0.23,-0.59, 9.67, 3456
25.13, 101643.93, 0.23,-0.57, 9.62, 3461
25.13, 101645.19, 0.13,-0.57, 9.64, 3466
25.13, 101645.19, 0.19,-0.59, 9.64, 3471
25.13, 101645.19, 0.23,-0.59, 9.60, 3476
25.13, 101645.19, 0.15,-0.56, 9.66, 3481
25.13, 101645.19, 0.19,-0.54, 9.60, 3486
25.13, 101645.19, 0.27,-0.59, 9.58, 3491
25.13, 101645.19, 0.27,-0.57, 9.60, 3496
25.13, 101645.52, 0.21,-0.59, 9.73, 3501
25.13, 101645.52, 0.23,-0.59, 9.66, 3506
25.13, 101645.52, 0.17,-0.56, 9.67, 3511
25.13, 101645.52, 0.19,-0.54, 9.54, 3516
25.13, 101645.52, 0.21,-0.44, 9.48, 3521
25.13, 101645.52, 0.25,-0.46, 9.54, 3526
25.13, 101645.52, 0.19,-0.61, 9.56, 3531
25.13, 101645.74, 0.25,-0.56, 9.56, 3536
25.13, 101645.74, 0.25,-0.52, 9.56, 3541
25.13, 101645.74, 0.23,-0.50, 9.54, 3546
25.13, 101645.74, 0.21,-0.50, 9.62, 3551
25.13, 101645.74, 0.17,-0.50, 9.66, 3556
25.13, 101645.74, 0.17,-0.54, 9.62, 3561
25.13, 101645.74, 0.19,-0.57, 9.64, 3566
25.13, 101645.97, 0.21,-0.52, 9.67, 3571
25.13, 101645.97, 0.21,-0.48, 9.60, 3576
25.13, 101645.97, 0.25,-0.57, 9.54, 3581
25.13, 101645.97, 0.27,-0.57, 9.64, 3586
25.13, 101645.97, 0.23,-0.59, 9.58, 3591
25.13, 101645.97, 0.19,-0.54, 9.54, 3596
25.13, 101645.97, 0.21,-0.57, 9.52, 3601
25.13, 101645.74, 0.23,-0.61, 9.62, 3606
25.13, 101645.74, 0.23,-0.48, 9.66, 3611
25.13, 101645.74, 0.33,-0.54, 9.58, 3616
25.13, 101645.74, 0.25,-0.50, 9.73, 3621
25.13, 101645.74, 0.19,-0.61, 9.69, 3626
25.13, 101645.74, 0.23,-0.59, 9.62, 3631
25.13, 101645.74, 0.25,-0.59, 9.69, 3636
25.13, 101646.02, 0.17,-0.50, 9.66, 3641
25.13, 101646.02, 0.21,-0.54, 9.67, 3646
25.13, 101646.02, 0.23,-0.61, 9.64, 3654
25.13, 101646.02, 0.25,-0.56, 9.58, 3658
25.13, 101646.02, 0.19,-0.56, 9.66, 3663
25.13, 101646.02, 0.19,-0.50, 9.67, 3668
25.13, 101646.02, 0.21,-0.52, 9.67, 3673
25.13, 101645.74, 0.19,-0.57, 9.66, 3678
25.13, 101645.74, 0.15,-0.61, 9.66, 3683
25.13, 101645.74, 0.23,-0.56, 9.62, 3688
25.13, 101645.74, 0.23,-0.56, 9.56, 3693
25.13, 101645.74, 0.25,-0.56, 9.60, 3698
25.13, 101645.74, 0.29,-0.54, 9.56, 3703
25.13, 101645.74, 0.23,-0.56, 9.66, 3708
25.13, 101643.44, 0.19,-0.63, 9.60, 3713
25.13, 101643.44, 0.15,-0.54, 9.66, 3718
25.13, 101643.44, 0.25,-0.52, 9.66, 3723
25.13, 101643.44, 0.21,-0.56, 9.67, 3728
25.13, 101643.44, 0.23,-0.50, 9.62, 3733
25.13, 101643.44, 0.29,-0.52, 9.58, 3738
25.13, 101643.44, 0.23,-0.56, 9.64, 3743
25.13, 101645.69, 0.17,-0.59, 9.64, 3748
25.13, 101645.69, 0.29,-0.56, 9.66, 3753
25.13, 101645.69, 0.27,-0.54, 9.73, 3758
25.13, 101645.69, 0.25,-0.54, 9.62, 3763
25.13, 101645.69, 0.27,-0.54, 9.62, 3768
25.13, 101645.69, 0.25,-0.52, 9.58, 3773
25.13, 101645.69, 0.21,-0.52, 9.62, 3778
25.13, 101644.59, 0.25,-0.61, 9.66, 3783
25.13, 101644.59, 0.21,-0.59, 9.60, 3788
25.13, 101644.59, 0.15,-0.63, 9.58, 3793
25.13, 101644.59, 0.27,-0.59, 9.56, 3798
25.13, 101644.59, 0.25,-0.57, 9.56, 3803
25.13, 101644.59, 0.25,-0.52, 9.50, 3808
25.13, 101644.59, 0.21,-0.57, 9.66, 3813
25.13, 101645.14, 0.19,-0.54, 9.73, 3818
25.13, 101645.14, 0.15,-0.52, 9.64, 3823
25.13, 101645.14, 0.21,-0.50, 9.81, 3828
25.13, 101645.14, 0.25,-0.57, 9.52, 3833
25.13, 101645.14, 0.31,-0.56, 9.43, 3838
25.13, 101645.14, 0.25,-0.52, 9.79, 3843
25.13, 101645.14, 0.19,-0.59, 9.73, 3848
25.13, 101645.47, 0.33,-0.54, 9.54, 3853
25.13, 101644.59, 0.29,-0.56, 9.52, 3858
25.13, 101644.59, 0.27,-0.59, 9.66, 3863
25.13, 101644.59, 0.29,-0.59, 9.62, 3868
25.13, 101644.59, 0.23,-0.56, 9.58, 3873
25.13, 101644.59, 0.17,-0.54, 9.58, 3878
25.13, 101644.59, 0.19,-0.56, 9.62, 3883
25.13, 101644.59, 0.17,-0.56, 9.73, 3888
25.13, 101646.68, 0.23,-0.54, 9.64, 3893
25.13, 101646.68, 0.15,-0.59, 9.60, 3898
25.13, 101646.68, 0.19,-0.59, 9.62, 3903
25.13, 101646.68, 0.15,-0.54, 9.58, 3908
25.13, 101646.68, 0.21,-0.63, 9.64, 3913
25.13, 101646.68, 0.15,-0.57, 9.56, 3918
25.13, 101646.68, 0.19,-0.57, 9.67, 3923
25.13, 101645.80, 0.11,-0.54, 9.50, 3928
25.13, 101645.80, 0.15,-0.56, 9.71, 3933
25.13, 101645.80, 0.15,-0.54, 9.52, 3938
25.13, 101645.80, 0.25,-0.50, 9.71, 3943
25.13, 101645.80, 0.27,-0.57, 9.43, 3948
25.13, 101645.80, 0.27,-0.59, 9.67, 3953
25.13, 101645.80, 0.29,-0.57, 9.48, 3958
25.13, 101643.44, 0.25,-0.61, 9.66, 3963
25.13, 101643.44, 0.21,-0.56, 9.60, 3968
25.13, 101643.44, 0.31,-0.52, 9.64, 3973
25.13, 101643.44, 0.17,-0.50, 9.54, 3978
25.13, 101643.44, 0.17,-0.54, 9.64, 3983
25.13, 101643.44, 0.19,-0.56, 9.52, 3988
25.13, 101643.44, 0.27,-0.57, 9.62, 3993
25.13, 101644.26, 0.19,-0.54, 9.69, 3998
25.13, 101644.26, 0.19,-0.59, 9.58, 4003
25.13, 101644.26, 0.23,-0.56, 9.64, 4008
25.13, 101644.26, 0.23,-0.59, 9.60, 4013
25.13, 101644.26, 0.25,-0.61, 9.58, 4018
25.13, 101644.26, 0.29,-0.57, 9.60, 4023
25.13, 101644.26, 0.31,-0.57, 9.64, 4028
25.13, 101644.36, 0.23,-0.61, 9.58, 4033
25.13, 101644.36, 0.23,-0.57, 9.60, 4038
25.13, 101644.36, 0.19,-0.57, 9.73, 4043
25.13, 101644.36, 0.17,-0.57, 9.69, 4048
25.13, 101644.36, 0.19,-0.46, 9.69, 4053
25.13, 101644.36, 0.23,-0.59, 9.71, 4058
25.13, 101644.36, 0.23,-0.59, 9.81, 4063
25.13, 101642.94, 0.25,-0.52, 9.67, 4068
25.13, 101642.94, 0.21,-0.50, 9.64, 4073
25.13, 101642.94, 0.19,-0.52, 9.64, 4078
25.13, 101642.94, 0.21,-0.56, 9.66, 4083
25.13, 101642.94, 0.15,-0.52, 9.64, 4088
25.13, 101642.94, 0.23,-0.57, 9.66, 4093
25.13, 101642.94, 0.27,-0.54, 9.66, 4098
25.13, 101646.30, 0.25,-0.52, 9.54, 4103
25.13, 101646.30, 0.23,-0.52, 9.50, 4108
25.13, 101646.30, 0.23,-0.57, 9.58, 4113
25.13, 101646.30, 0.23,-0.56, 9.58, 4118
25.13, 101646.30, 0.23,-0.56, 9.64, 4123
25.13, 101646.30, 0.25,-0.59, 9.62, 4128
25.13, 101646.30, 0.25,-0.52, 9.62, 4133
25.13, 101644.42, 0.27,-0.57, 9.60, 4138
25.13, 101644.42, 0.23,-0.54, 9.52, 4143
25.13, 101644.42, 0.21,-0.52, 9.64, 4148
25.13, 101644.42, 0.29,-0.57, 9.67, 4155
25.13, 101644.42, 0.27,-0.52, 9.66, 4160
25.13, 101644.42, 0.21,-0.52, 9.60, 4165
25.13, 101644.42, 0.25,-0.65, 9.60, 4170
25.13, 101644.98, 0.11,-0.57, 9.73, 4175
25.13, 101644.98, 0.31,-0.56, 9.48, 4180
25.13, 101644.98, 0.21,-0.61, 9.56, 4185
25.13, 101644.98, 0.23,-0.54, 9.58, 4190
25.13, 101644.98, 0.23,-0.59, 9.58, 4195
25.13, 101644.98, 0.23,-0.56, 9.60, 4200
25.13, 101644.98, 0.19,-0.54, 9.69, 4205
25.13, 101646.79, 0.17,-0.57, 9.60, 4210
25.13, 101646.79, 0.23,-0.61, 9.62, 4215
25.13, 101646.79, 0.15,-0.59, 9.62, 4220
25.13, 101646.79, 0.15,-0.56, 9.66, 4225
25.13, 101646.79, 0.21,-0.54, 9.62, 4230
25.13, 101646.79, 0.27,-0.57, 9.64, 4235
25.13, 101646.79, 0.23,-0.59, 9.66, 4240
25.13, 101643.44, 0.25,-0.54, 9.60, 4245
25.13, 101643.44, 0.19,-0.54, 9.67, 4250
25.13, 101643.44, 0.19,-0.57, 9.67, 4255
25.13, 101643.44, 0.19,-0.50, 9.64, 4260
25.13, 101643.44, 0.21,-0.56, 9.66, 4265
25.13, 101643.44, 0.21,-0.59, 9.62, 4270
25.13, 101643.44, 0.21,-0.61, 9.62, 4275
25.13, 101642.33, 0.23,-0.61, 9.58, 4280
25.13, 101642.33, 0.25,-0.59, 9.73, 4285
25.13, 101642.33, 0.27,-0.57, 9.52, 4290
25.13, 101642.33, 0.25,-0.59, 9.58, 4295
25.13, 101642.33, 0.23,-0.56, 9.77, 4300
25.13, 101642.33, 0.23,-0.50, 9.58, 4305
25.13, 101642.33, 0.21,-0.57, 9.71, 4310
25.13, 101644.31, 0.27,-0.61, 9.56, 4315
25.13, 101644.31, 0.23,-0.59, 9.43, 4320
25.13, 101644.31, 0.31,-0.56, 9.50, 4325
25.13, 101644.31, 0.23,-0.52, 9.56, 4330
25.13, 101644.31, 0.17,-0.65, 9.62, 4335
25.13, 101644.31, 0.17,-0.59, 9.62, 4340
25.13, 101644.31, 0.25,-0.54, 9.58, 4345
25.13, 101646.46, 0.13,-0.52, 9.64, 4350
25.13, 101646.46, 0.15,-0.56, 9.52, 4355
25.13, 101646.46, 0.19,-0.54, 9.62, 4360
25.13, 101646.46, 0.23,-0.56, 9.62, 4365
25.13, 101646.46, 0.27,-0.59, 9.60, 4370
25.13, 101646.46, 0.21,-0.56, 9.60, 4375
25.13, 101646.46, 0.25,-0.57, 9.62, 4380
25.13, 101646.46, 0.25,-0.56, 9.56, 4385
25.13, 101645.78, 0.25,-0.57, 9.58, 4390
25.13, 101645.78, 0.27,-0.59, 9.56, 4395
25.13, 101645.78, 0.25,-0.56, 9.64, 4400
25.13, 101645.78, 0.23,-0.61, 9.54, 4405
25.13, 101645.78, 0.21,-0.57, 9.60, 4410
25.13, 101645.78, 0.21,-0.50, 9.62, 4415
25.13, 101645.78, 0.23,-0.59, 9.67, 4420
25.13, 101646.46, 0.19,-0.52, 9.71, 4425
25.13, 101646.46, 0.25,-0.61, 9.83, 4430
25.13, 101646.46, 0.21,-0.63, 9.58, 4435
25.13, 101646.46, 0.23,-0.59, 9.50, 4440
25.13, 101646.46, 0.21,-0.48, 9.50, 4445
25.13, 101646.46, 0.27,-0.56, 9.60, 4450
25.13, 101646.46, 0.31,-0.56, 9.60, 4455
25.13, 101644.81, 0.19,-0.50, 9.56, 4460
25.13, 101644.81, 0.27,-0.54, 9.60, 4465
25.13, 101644.81, 0.25,-0.57, 9.58, 4470
25.13, 101644.81, 0.23,-0.63, 9.58, 4475
25.13, 101644.81, 0.21,-0.56, 9.73, 4480
25.13, 101644.81, 0.15,-0.52, 9.56, 4485
25.13, 101644.81, 0.23,-0.50, 9.64, 4490
25.13, 101642.99, 0.19,-0.57, 9.64, 4495
25.13, 101642.99, 0.19,-0.52, 9.66, 4500
25.13, 101642.99, 0.23,-0.61, 9.67, 4505
25.13, 101642.99, 0.23,-0.59, 9.66, 4510
25.13, 101642.99, 0.29,-0.57, 9.58, 4515
25.13, 101642.99, 0.21,-0.56, 9.60, 4520
25.13, 101642.99, 0.17,-0.57, 9.64, 4525
25.13, 101643.66, 0.15,-0.57, 9.58, 4530
25.13, 101643.66, 0.15,-0.57, 9.67, 4535
25.13, 101643.66, 0.21,-0.57, 9.58, 4540
25.13, 101643.66, 0.23,-0.56, 9.58, 4545
25.13, 101643.66, 0.19,-0.50, 9.56, 4550
25.13, 101643.66, 0.21,-0.54, 9.56, 4555
25.13, 101643.66, 0.23,-0.56, 9.69, 4560
25.13, 101642.33, 0.21,-0.61, 9.54, 4565
25.13, 101642.33, 0.25,-0.52, 9.60, 4570
25.13, 101642.33, 0.23,-0.50, 9.52, 4575
25.13, 101642.33, 0.23,-0.48, 9.64, 4580
25.13, 101642.33, 0.21,-0.57, 9.64, 4585
25.13, 101642.33, 0.29,-0.59, 9.67, 4590
25.13, 101642.33, 0.17,-0.61, 9.64, 4595
25.13, 101643.66, 0.21,-0.57, 9.62, 4600
25.13, 101643.66, 0.27,-0.56, 9.69, 4605
25.13, 101643.66, 0.17,-0.54, 9.60, 4610
25.13, 101643.66, 0.25,-0.54, 9.66, 4615
25.13, 101643.66, 0.25,-0.50, 9.66, 4620
25.13, 101643.66, 0.27,-0.54, 9.66, 4625
25.13, 101643.66, 0.19,-0.57, 9.66, 4630
25.13, 101644.31, 0.25,-0.67, 9.62, 4635
25.13, 101644.31, 0.27,-0.63, 9.58, 4640
25.13, 101644.31, 0.21,-0.61, 9.62, 4645
25.13, 101644.31, 0.25,-0.56, 9.73, 4650
25.13, 101644.31, 0.23,-0.57, 9.67, 4658
25.13, 101644.31, 0.19,-0.61, 9.73, 4662
25.13, 101644.31, 0.23,-0.59, 9.64, 4667
25.13, 101645.36, 0.29,-0.56, 9.67, 4672
25.13, 101645.36, 0.29,-0.54, 9.60, 4677
25.13, 101645.36, 0.21,-0.57, 9.64, 4682
25.13, 101645.36, 0.27,-0.52, 9.60, 4687
25.13, 101645.36, 0.31,-0.59, 9.56, 4692
25.13, 101645.36, 0.27,-0.54, 9.62, 4697
25.13, 101645.36, 0.23,-0.54, 9.56, 4702
25.13, 101646.12, 0.25,-0.50, 9.56, 4707
25.13, 101646.12, 0.21,-0.56, 9.64, 4712
25.13, 101646.12, 0.29,-0.54, 9.62, 4717
25.13, 101646.12, 0.19,-0.56, 9.64, 4722
25.13, 101646.12, 0.17,-0.57, 9.67, 4727
25.13, 101646.12, 0.19,-0.52, 9.71, 4732
25.13, 101646.12, 0.21,-0.56, 9.54, 4737
25.13, 101644.15, 0.33,-0.54, 9.50, 4742
25.13, 101644.15, 0.31,-0.56, 9.64, 4747
25.13, 101644.15, 0.29,-0.54, 9.50, 4752
25.13, 101644.15, 0.21,-0.44, 9.54, 4757
25.13, 101644.15, 0.19,-0.52, 9.67, 4762
25.13, 101644.15, 0.15,-0.52, 9.69, 4767
25.13, 101644.15, 0.25,-0.56, 9.66, 4772
25.13, 101645.03, 0.19,-0.54, 9.67, 4777
25.13, 101645.03, 0.23,-0.57, 9.64, 4782
25.13, 101645.03, 0.25,-0.52, 9.62, 4787
25.13, 101645.03, 0.13,-0.54, 9.64, 4792
25.13, 101645.03, 0.21,-0.50, 9.66, 4797
25.13, 101645.03, 0.15,-0.59, 9.66, 4802
25.13, 101645.03, 0.21,-0.46, 9.64, 4807
25.13, 101646.02, 0.23,-0.56, 9.62, 4812
25.13, 101646.02, 0.27,-0.54, 9.62, 4817
25.13, 101646.02, 0.23,-0.48, 9.62, 4822
25.13, 101646.02, 0.25,-0.50, 9.69, 4827
25.13, 101646.02, 0.23,-0.52, 9.69, 4832
25.13, 101646.02, 0.23,-0.57, 9.64, 4837
25.13, 101646.02, 0.27,-0.61, 9.66, 4842
25.13, 101646.12, 0.23,-0.54, 9.66, 4847
25.13, 101646.12, 0.23,-0.54, 9.62, 4852
25.13, 101646.12, 0.19,-0.52, 9.56, 4857
25.13, 101646.12, 0.23,-0.63, 9.66, 4862
25.13, 101646.12, 0.21,-0.61, 9.60, 4867
25.13, 101646.12, 0.21,-0.52, 9.67, 4872
25.13, 101646.12, 0.23,-0.61, 9.64, 4877
25.13, 101646.12, 0.23,-0.56, 9.62, 4882
25.13, 101648.59, 0.21,-0.57, 9.64, 4887
25.13, 101648.59, 0.23,-0.59, 9.52, 4892
25.13, 101648.59, 0.23,-0.59, 9.62, 4897
25.13, 101648.59, 0.25,-0.56, 9.66, 4902
25.13, 101648.59, 0.25,-0.57, 9.60, 4907
25.13, 101648.59, 0.23,-0.56, 9.60, 4912
25.13, 101648.59, 0.25,-0.57, 9.66, 4917
25.13, 101645.53, 0.19,-0.57, 9.56, 4922
25.13, 101645.53, 0.17,-0.50, 9.64, 4927
25.13, 101645.53, 0.19,-0.54, 9.48, 4932
25.13, 101645.53, 0.25,-0.61, 9.62, 4937
25.13, 101645.53, 0.21,-0.57, 9.58, 4942
25.13, 101645.53, 0.23,-0.61, 9.62, 4947
25.13, 101645.53, 0.19,-0.59, 9.62, 4952
25.13, 101642.99, 0.15,-0.59, 9.66, 4957
25.13, 101642.99, 0.17,-0.57, 9.64, 4962
25.13, 101642.99, 0.23,-0.56, 9.69, 4967
25.13, 101642.99, 0.23,-0.52, 9.62, 4972
25.13, 101642.99, 0.25,-0.52, 9.58, 4977
25.13, 101642.99, 0.21,-0.56, 9.64, 4982
25.13, 101642.99, 0.25,-0.56, 9.67, 4987
25.13, 101644.98, 0.27,-0.56, 9.66, 4992
25.13, 101644.98, 0.19,-0.59, 9.67, 4997
25.13, 101644.98, 0.23,-0.54, 9.58, 5002
25.13, 101644.98, 0.25,-0.59, 9.67, 5007
25.13, 101644.98, 0.21,-0.59, 9.71, 5012
25.13, 101644.98, 0.23,-0.54, 9.81, 5017
25.13, 101644.98, 0.23,-0.59, 9.60, 5022
25.13, 101645.78, 0.33,-0.54, 9.69, 5027
25.13, 101645.78, 0.25,-0.57, 9.64, 5032
25.13, 101645.78, 0.25,-0.61, 9.50, 5037
25.13, 101645.78, 0.19,-0.56, 9.50, 5042
25.13, 101645.78, 0.21,-0.63, 9.62, 5047
25.13, 101645.78, 0.25,-0.54, 9.69, 5052
25.13, 101645.78, 0.19,-0.56, 9.64, 5057
25.13, 101646.28, 0.19,-0.56, 9.62, 5062
25.13, 101646.28, 0.25,-0.52, 9.64, 5067
25.13, 101646.28, 0.17,-0.56, 9.62, 5072
25.13, 101646.28, 0.19,-0.57, 9.58, 5077
25.13, 101646.28, 0.19,-0.57, 9.62, 5082
25.13, 101646.28, 0.25,-0.57, 9.58, 5087
25.13, 101646.28, 0.19,-0.57, 9.60, 5092
25.13, 101644.62, 0.23,-0.56, 9.62, 5097
25.13, 101644.62, 0.19,-0.50, 9.67, 5102
25.13, 101644.62, 0.17,-0.52, 9.58, 5107
25.13, 101644.62, 0.11,-0.56, 9.60, 5112
25.13, 101644.62, 0.21,-0.65, 9.64, 5117
25.13, 101644.62, 0.19,-0.56, 9.67, 5122
25.13, 101644.62, 0.21,-0.63, 9.69, 5127
25.13, 101643.38, 0.19,-0.54, 9.62, 5132
25.13, 101643.38, 0.19,-0.59, 9.62, 5137
25.13, 101643.38, 0.21,-0.56, 9.62, 5142
25.13, 101643.38, 0.25,-0.52, 9.66, 5147
25.13, 101643.38, 0.19,-0.56, 9.54, 5152
25.13, 101643.38, 0.21,-0.57, 9.75, 5160
25.13, 101643.38, 0.27,-0.56, 9.67, 5165
25.13, 101642.32, 0.21,-0.59, 9.62, 5169
25.13, 101642.32, 0.23,-0.59, 9.64, 5174
25.13, 101642.32, 0.19,-0.61, 9.56, 5179
25.13, 101642.32, 0.29,-0.56, 9.62, 5184
25.13, 101642.32, 0.21,-0.54, 9.60, 5189
25.13, 101642.32, 0.23,-0.56, 9.60, 5194
25.13, 101642.32, 0.21,-0.54, 9.62, 5199
25.13, 101643.71, 0.23,-0.57, 9.62, 5204
25.13, 101643.71, 0.31,-0.57, 9.45, 5209
25.13, 101643.71, 0.31,-0.63, 9.45, 5214
25.13, 101643.71, 0.19,-0.54, 9.48, 5219
25.13, 101643.71, 0.25,-0.56, 9.52, 5224
25.13, 101643.71, 0.21,-0.56, 9.56, 5229
25.13, 101643.71, 0.19,-0.54, 9.66, 5234
25.13, 101644.20, 0.19,-0.46, 9.62, 5239
25.13, 101644.20, 0.19,-0.52, 9.52, 5244
25.13, 101644.20, 0.25,-0.50, 9.52, 5249
25.13, 101644.20, 0.21,-0.52, 9.62, 5254
25.13, 101644.20, 0.23,-0.50, 9.64, 5259
25.13, 101644.20, 0.21,-0.52, 9.75, 5264
25.13, 101644.20, 0.19,-0.56, 9.71, 5269
25.13, 101645.84, 0.29,-0.59, 9.64, 5274
25.13, 101645.84, 0.23,-0.56, 9.62, 5279
25.13, 101645.84, 0.27,-0.61, 9.66, 5284
25.13, 101645.84, 0.19,-0.59, 9.64, 5289
25.13, 101645.84, 0.19,-0.54, 9.66, 5294
25.13, 101645.84, 0.15,-0.57, 9.58, 5299
25.13, 101645.84, 0.17,-0.59, 9.64, 5304
25.13, 101644.13, 0.19,-0.56, 9.67, 5309
25.13, 101644.13, 0.25,-0.50, 9.64, 5314
25.13, 101644.13, 0.21,-0.63, 9.60, 5319
25.13, 101644.13, 0.33,-0.56, 9.79, 5324
25.13, 101644.13, 0.33,-0.63, 9.66, 5329
25.13, 101644.13, 0.31,-0.63, 9.56, 5334
25.13, 101644.13, 0.23,-0.59, 9.50, 5339
25.13, 101643.98, 0.27,-0.57, 9.48, 5344
25.13, 101643.98, 0.23,-0.59, 9.54, 5349
25.13, 101643.98, 0.19,-0.54, 9.58, 5354
25.13, 101643.98, 0.25,-0.54, 9.62, 5359
25.13, 101643.98, 0.27,-0.57, 9.71, 5364
25.13, 101643.98, 0.19,-0.59, 9.54, 5369
25.13, 101643.98, 0.29,-0.54, 9.48, 5374
25.13, 101643.98, 0.31,-0.52, 9.52, 5379
25.13, 101647.83, 0.25,-0.56, 9.52, 5384
25.13, 101647.83, 0.21,-0.65, 9.62, 5389
25.13, 101647.83, 0.23,-0.57, 9.58, 5394
25.13, 101647.83, 0.21,-0.52, 9.58, 5399
25.13, 101647.83, 0.25,-0.59, 9.60, 5404
25.13, 101647.83, 0.23,-0.54, 9.58, 5409
25.13, 101647.83, 0.25,-0.50, 9.62, 5414
25.13, 101646.94, 0.23,-0.52, 9.66, 5419
25.13, 101646.94, 0.19,-0.59, 9.66, 5424
25.13, 101646.94, 0.19,-0.56, 9.64, 5429
25.13, 101646.94, 0.17,-0.54, 9.60, 5434
25.13, 101646.94, 0.23,-0.63, 9.73, 5439
25.13, 101646.94, 0.27,-0.61, 9.69, 5444
25.13, 101646.94, 0.23,-0.52, 9.67, 5449
25.13, 101645.14, 0.23,-0.57, 9.50, 5454
25.13, 101645.14, 0.23,-0.59, 9.73, 5459
25.13, 101645.14, 0.19,-0.56, 9.58, 5464
25.13, 101645.14, 0.25,-0.52, 9.60, 5469
25.13, 101645.14, 0.27,-0.54, 9.58, 5474
25.13, 101645.14, 0.23,-0.48, 9.56, 5479
25.13, 101645.14, 0.21,-0.61, 9.67, 5484
25.13, 101644.02, 0.33,-0.65, 9.64, 5489
25.13, 101644.02, 0.27,-0.54, 9.56, 5494
25.13, 101644.02, 0.21,-0.59, 9.60, 5499
25.13, 101644.02, 0.23,-0.57, 9.58, 5504
25.13, 101644.02, 0.19,-0.57, 9.60, 5509
25.13, 101644.02, 0.27,-0.57, 9.60, 5514
25.13, 101644.02, 0.27,-0.48, 9.58, 5519
25.13, 101644.53, 0.21,-0.56, 9.58, 5524
25.13, 101644.53, 0.27,-0.52, 9.58, 5529
25.13, 101644.53, 0.23,-0.54, 9.62, 5534
25.13, 101644.53, 0.21,-0.57, 9.73, 5539
25.13, 101644.53, 0.27,-0.57, 9.73, 5544
25.13, 101644.53, 0.23,-0.57, 9.31, 5549
25.13, 101644.53, 0.25,-0.57, 9.60, 5554
25.13, 101647.55, 0.27,-0.61, 9.66, 5559
25.13, 101647.55, 0.23,-0.56, 9.62, 5564
25.13, 101647.55, 0.17,-0.57, 9.60, 5569
25.13, 101647.55, 0.23,-0.52, 9.62, 5574
25.13, 101647.55, 0.19,-0.54, 9.60, 5579
25.13, 101647.55, 0.25,-0.48, 9.66, 5584
25.13, 101647.55, 0.21,-0.46, 9.66, 5589
25.13, 101644.53, 0.21,-0.59, 9.62, 5594
25.13, 101644.53, 0.21,-0.61, 9.67, 5599
25.13, 101644.53, 0.19,-0.52, 9.66, 5604
25.13, 101644.53, 0.21,-0.54, 9.66, 5609
25.13, 101644.53, 0.19,-0.59, 9.73, 5614
25.13, 101644.53, 0.21,-0.56, 9.66, 5619
25.13, 101644.53, 0.25,-0.57, 9.60, 5624
25.13, 101643.55, 0.23,-0.59, 9.66, 5629
25.13, 101643.55, 0.19,-0.61, 9.60, 5634
25.13, 101643.55, 0.27,-0.50, 9.58, 5639
25.13, 101643.55, 0.29,-0.54, 9.67, 5644
25.13, 101643.55, 0.21,-0.54, 9.66, 5649
25.13, 101643.55, 0.17,-0.61, 9.73, 5654
25.13, 101643.55, 0.21,-0.54, 9.60, 5662
25.13, 101643.80, 0.21,-0.57, 9.60, 5666
25.13, 101643.80, 0.31,-0.56, 9.60, 5671
25.13, 101643.80, 0.23,-0.54, 9.69, 5676
25.13, 101643.80, 0.23,-0.57, 9.56, 5681
25.13, 101643.80, 0.27,-0.63, 9.62, 5686
25.13, 101643.80, 0.29,-0.50, 9.60, 5691
25.13, 101643.80, 0.23,-0.50, 9.62, 5696
25.13, 101645.95, 0.25,-0.50, 9.64, 5701
25.13, 101645.95, 0.21,-0.56, 9.66, 5706
25.13, 101645.95, 0.23,-0.56, 9.66, 5711
25.13, 101645.95, 0.27,-0.56, 9.60, 5716
25.13, 101645.95, 0.25,-0.57, 9.62, 5721
25.13, 101645.95, 0.27,-0.57, 9.58, 5726
25.13, 101645.95, 0.19,-0.57, 9.62, 5731
25.13, 101646.45, 0.13,-0.57, 9.62, 5736
25.13, 101646.45, 0.31,-0.61, 9.89, 5741
25.13, 101646.45, 0.25,-0.52, 9.54, 5746
25.13, 101646.45, 0.25,-0.59, 9.77, 5751
25.13, 101646.45, 0.27,-0.48, 9.66, 5756
25.13, 101646.45, 0.25,-0.56, 9.52, 5761
25.13, 101646.45, 0.25,-0.56, 9.37, 5766
25.13, 101645.29, 0.23,-0.59, 9.52, 5771
25.13, 101645.29, 0.25,-0.63, 9.52, 5776
25.13, 101645.29, 0.23,-0.63, 9.60, 5781
25.13, 101645.29, 0.17,-0.57, 9.54, 5786
25.13, 101645.29, 0.21,-0.57, 9.67, 5791
25.13, 101645.29, 0.23,-0.56, 9.62, 5796
25.13, 101645.29, 0.25,-0.52, 9.56, 5801
25.13, 101646.50, 0.19,-0.61, 9.67, 5806
25.13, 101646.50, 0.23,-0.56, 9.67, 5811
25.13, 101646.50, 0.25,-0.54, 9.66, 5816
25.13, 101646.50, 0.23,-0.52, 9.60, 5821
25.13, 101646.50, 0.21,-0.52, 9.64, 5826
25.13, 101646.50, 0.29,-0.59, 9.66, 5831
25.13, 101646.50, 0.23,-0.59, 9.64, 5836
25.13, 101643.31, 0.21,-0.52, 9.62, 5841
25.13, 101643.31, 0.25,-0.57, 9.69, 5846
25.13, 101643.31, 0.25,-0.56, 9.83, 5851
25.13, 101643.31, 0.25,-0.50, 9.73, 5856
25.13, 101643.31, 0.36,-0.54, 9.66, 5861
25.13, 101643.31, 0.33,-0.61, 9.60, 5866
25.13, 101643.31, 0.25,-0.65, 9.87, 5871
25.13, 101643.31, 0.19,-0.57, 9.71, 5876
25.13, 101643.80, 0.19,-0.57, 9.67, 5881
25.13, 101643.80, 0.27,-0.56, 9.52, 5886
25.13, 101643.80, 0.34,-0.63, 9.58, 5891
25.13, 101643.80, 0.25,-0.56, 9.58, 5896
25.13, 101643.80, 0.21,-0.59, 9.66, 5901
25.13, 101643.80, 0.25,-0.57, 9.60, 5906
25.13, 101643.80, 0.25,-0.52, 9.64, 5911
25.13, 101644.96, 0.19,-0.59, 9.60, 5916
25.13, 101644.96, 0.19,-0.59, 9.46, 5921
25.13, 101644.96, 0.21,-0.61, 9.64, 5926
25.13, 101644.96, 0.19,-0.59, 9.64, 5931
25.13, 101644.96, 0.25,-0.57, 9.67, 5936
25.13, 101644.96, 0.25,-0.57, 9.62, 5941
25.13, 101644.96, 0.25,-0.54, 9.69, 5946
25.13, 101646.01, 0.23,-0.61, 9.64, 5951
25.13, 101646.01, 0.17,-0.57, 9.60, 5956
25.13, 101646.01, 0.23,-0.50, 9.60, 5961
25.13, 101646.01, 0.13,-0.46, 9.62, 5966
25.13, 101646.01, 0.25,-0.44, 9.62, 5971
25.13, 101646.01, 0.25,-0.61, 9.64, 5976
25.13, 101646.01, 0.29,-0.65, 9.75, 5981
25.13, 101645.84, 0.19,-0.59, 9.75, 5986
25.13, 101645.84, 0.17,-0.54, 9.52, 5991
25.13, 101645.84, 0.19,-0.59, 9.50, 5996
25.13, 101645.84, 0.19,-0.54, 9.52, 6001
25.13, 101645.84, 0.27,-0.59, 9.60, 6006
25.13, 101645.84, 0.19,-0.48, 9.69, 6011
25.13, 101645.84, 0.17,-0.61, 9.58, 6016
25.13, 101645.19, 0.19,-0.50, 9.54, 6021
25.13, 101645.19, 0.27,-0.56, 9.64, 6026
25.13, 101645.19, 0.23,-0.54, 9.73, 6031
25.13, 101645.19, 0.33,-0.59, 9.66, 6036
25.13, 101645.19, 0.33,-0.56, 9.66, 6041
25.13, 101645.19, 0.25,-0.59, 9.66, 6046
25.13, 101645.19, 0.21,-0.59, 9.66, 6051
25.13, 101645.19, 0.19,-0.54, 9.60, 6056
25.13, 101645.19, 0.23,-0.50, 9.66, 6061
25.13, 101645.19, 0.21,-0.54, 9.64, 6066
25.13, 101645.19, 0.15,-0.59, 9.69, 6071
25.13, 101645.19, 0.19,-0.48, 9.62, 6076
25.13, 101645.19, 0.31,-0.56, 9.56, 6081
25.13, 101645.19, 0.21,-0.61, 9.41, 6086
25.13, 101643.05, 0.25,-0.59, 9.64, 6091
25.13, 101643.05, 0.21,-0.46, 9.48, 6096
25.13, 101643.05, 0.13,-0.54, 9.48, 6101
25.13, 101643.05, 0.19,-0.50, 9.58, 6106
25.13, 101643.05, 0.27,-0.54, 9.71, 6111
25.13, 101643.05, 0.27,-0.57, 9.71, 6116
25.13, 101643.05, 0.25,-0.57, 9.66, 6121
25.13, 101644.15, 0.23,-0.57, 9.66, 6126
25.13, 101644.15, 0.21,-0.52, 9.60, 6131
25.13, 101644.15, 0.29,-0.57, 9.64, 6136
25.13, 101644.15, 0.25,-0.56, 9.67, 6141
25.13, 101644.15, 0.23,-0.61, 9.60, 6146
25.13, 101644.15, 0.25,-0.59, 9.58, 6151
25.13, 101644.15, 0.21,-0.63, 9.62, 6156
25.13, 101643.47, 0.21,-0.54, 9.62, 6168
25.13, 101643.47, 0.27,-0.57, 9.60, 6172
25.13, 101643.47, 0.19,-0.57, 9.67, 6177
25.13, 101643.47, 0.29,-0.56, 9.73, 6182
25.13, 101643.47, 0.21,-0.61, 9.60, 6187
25.13, 101643.47, 0.21,-0.59, 9.62, 6192
25.13, 101646.39, 0.23,-0.57, 9.64, 6197
25.13, 101646.39, 0.27,-0.56, 9.60, 6202
25.13, 101646.39, 0.21,-0.59, 9.64, 6207
25.13, 101646.39, 0.23,-0.61, 9.67, 6212
25.13, 101646.39, 0.23,-0.59, 9.66, 6217
25.13, 101646.39, 0.27,-0.56, 9.66, 6222
25.13, 101646.39, 0.23,-0.59, 9.62, 6227
25.13, 101645.29, 0.19,-0.54, 9.62, 6232
25.13, 101645.29, 0.23,-0.57, 9.66, 6237
25.13, 101645.29, 0.21,-0.52, 9.64, 6242
25.13, 101645.29, 0.34,-0.54, 9.66, 6247
25.13, 101645.29, 0.25,-0.46, 9.45, 6252
25.13, 101645.29, 0.23,-0.57, 9.83, 6257
25.13, 101645.29, 0.23,-0.56, 9.73, 6262
25.13, 101647.00, 0.23,-0.48, 9.66, 6267
25.13, 101647.00, 0.29,-0.50, 9.62, 6272
25.13, 101647.00, 0.31,-0.52, 9.62, 6277
25.13, 101647.00, 0.21,-0.61, 9.67, 6282
25.13, 101647.00, 0.23,-0.54, 9.58, 6287
25.13, 101647.00, 0.17,-0.56, 9.67, 6292
25.13, 101647.00, 0.21,-0.48, 9.64, 6297
25.13, 101647.00, 0.23,-0.59, 9.64, 6302
25.13, 101646.84, 0.27,-0.54, 9.66, 6307
25.13, 101646.84, 0.21,-0.56, 9.60, 6312
25.13, 101646.84, 0.21,-0.61, 9.69, 6317
25.13, 101646.84, 0.21,-0.54, 9.64, 6322
25.13, 101646.84, 0.25,-0.59, 9.62, 6327
25.13, 101646.84, 0.25,-0.54, 9.64, 6332
25.13, 101646.84, 0.23,-0.57, 9.66, 6337
25.13, 101648.77, 0.19,-0.48, 9.60, 6342
25.13, 101648.77, 0.21,-0.52, 9.58, 6347
25.13, 101648.77, 0.25,-0.50, 9.60, 6352
25.13, 101648.77, 0.21,-0.59, 9.54, 6357
25.13, 101648.77, 0.33,-0.57, 9.62, 6362
25.13, 101648.77, 0.25,-0.56, 9.75, 6367
25.13, 101648.77, 0.23,-0.57, 9.77, 6372
25.13, 101647.39, 0.25,-0.56, 9.87, 6377
25.13, 101647.39, 0.31,-0.50, 9.64, 6382
25.13, 101647.39, 0.29,-0.48, 9.43, 6387
25.13, 101647.39, 0.19,-0.57, 9.46, 6392
25.13, 101647.39, 0.23,-0.57, 9.58, 6397
25.13, 101647.39, 0.25,-0.61, 9.66, 6402
25.13, 101647.39, 0.23,-0.48, 9.64, 6407
25.13, 101647.22, 0.25,-0.48, 9.54, 6412
25.13, 101647.22, 0.19,-0.48, 9.60, 6417
25.13, 101647.22, 0.17,-0.59, 9.66, 6422
25.13, 101647.22, 0.19,-0.54, 9.66, 6427
25.13, 101647.22, 0.25,-0.54, 9.64, 6432
25.13, 101647.22, 0.21,-0.54, 9.66, 6437
25.13, 101647.22, 0.27,-0.59, 9.62, 6442
25.13, 101646.89, 0.31,-0.57, 9.64, 6447
25.13, 101646.89, 0.25,-0.57, 9.60, 6452
25.13, 101646.89, 0.23,-0.59, 9.64, 6457
25.13, 101646.89, 0.23,-0.50, 9.73, 6462
25.13, 101646.89, 0.17,-0.63, 9.69, 6467
25.13, 101646.89, 0.33,-0.61, 9.69, 6472
25.13, 101646.89, 0.25,-0.54, 9.60, 6477
25.13, 101646.28, 0.27,-0.63, 9.66, 6482
25.13, 101646.28, 0.15,-0.52, 9.60, 6487
25.13, 101646.28, 0.21,-0.52, 9.66, 6492
25.13, 101646.28, 0.27,-0.59, 9.52, 6497
25.13, 101646.28, 0.27,-0.59, 9.56, 6502
25.13, 101646.28, 0.23,-0.56, 9.58, 6507
25.13, 101646.28, 0.27,-0.56, 9.62, 6512
25.13, 101646.84, 0.31,-0.59, 9.56, 6517
25.13, 101646.84, 0.17,-0.57, 9.73, 6522
25.13, 101646.84, 0.27,-0.61, 9.62, 6527
25.13, 101646.84, 0.23,-0.54, 9.62, 6532
25.13, 101646.84, 0.27,-0.61, 9.62, 6537
25.13, 101646.84, 0.27,-0.61, 9.66, 6542
25.13, 101646.84, 0.25,-0.57, 9.62, 6547
25.13, 101646.39, 0.25,-0.54, 9.60, 6552
25.13, 101646.39, 0.21,-0.54, 9.67, 6557
25.13, 101646.39, 0.23,-0.56, 9.64, 6562
25.13, 101646.39, 0.21,-0.54, 9.67, 6567
25.13, 101646.39, 0.15,-0.54, 9.66, 6572
25.13, 101646.39, 0.25,-0.59, 9.62, 6577
25.13, 101646.39, 0.27,-0.59, 9.67, 6582
25.13, 101648.77, 0.29,-0.56, 9.71, 6587
25.13, 101648.77, 0.15,-0.56, 9.56, 6592
25.13, 101648.77, 0.31,-0.54, 9.60, 6597
25.13, 101648.77, 0.29,-0.54, 9.56, 6602
25.13, 101648.77, 0.21,-0.50, 9.58, 6607
25.13, 101648.77, 0.25,-0.52, 9.46, 6612
25.13, 101648.77, 0.29,-0.54, 9.52, 6617
25.13, 101646.01, 0.25,-0.50, 9.73, 6622
25.13, 101646.01, 0.25,-0.52, 9.66, 6627
25.13, 101646.01, 0.29,-0.56, 9.54, 6632
25.13, 101646.01, 0.21,-0.56, 9.67, 6637
25.13, 101646.01, 0.19,-0.61, 9.66, 6642
25.13, 101646.01, 0.33,-0.61, 9.64, 6647
25.13, 101646.01, 0.31,-0.57, 9.58, 6652
25.13, 101646.01, 0.29,-0.54, 9.58, 6657
25.13, 101645.90, 0.27,-0.56, 9.60, 6662
25.13, 101645.90, 0.19,-0.54, 9.60, 6669
25.13, 101645.90, 0.25,-0.57, 9.62, 6674
25.13, 101645.90, 0.21,-0.61, 9.69, 6679
25.13, 101645.90, 0.23,-0.61, 9.52, 6684
25.13, 101645.90, 0.25,-0.59, 9.69, 6689
25.13, 101647.77, 0.23,-0.63, 9.62, 6694
25.13, 101647.77, 0.25,-0.52, 9.64, 6699
25.13, 101647.77, 0.29,-0.63, 9.60, 6704
25.13, 101647.77, 0.29,-0.59, 9.52, 6709
25.13, 101647.77, 0.29,-0.59, 9.60, 6714
25.13, 101647.77, 0.17,-0.48, 9.66, 6719
25.13, 101647.77, 0.25,-0.56, 9.64, 6724
25.13, 101645.73, 0.27,-0.57, 9.52, 6729
25.13, 101645.73, 0.25,-0.56, 9.64, 6734
25.13, 101645.73, 0.27,-0.56, 9.60, 6739
25.13, 101645.73, 0.23,-0.57, 9.67, 6744
25.13, 101645.73, 0.23,-0.57, 9.60, 6749
25.13, 101645.73, 0.17,-0.56, 9.60, 6754
25.13, 101645.73, 0.19,-0.56, 9.64, 6759
25.13, 101648.53, 0.25,-0.56, 9.56, 6764
25.13, 101648.53, 0.21,-0.57, 9.62, 6769
25.13, 101648.53, 0.25,-0.57, 9.56, 6774
25.13, 101648.53, 0.25,-0.56, 9.64, 6779
25.13, 101648.53, 0.27,-0.59, 9.60, 6784
25.13, 101648.53, 0.23,-0.59, 9.64, 6789
25.13, 101648.53, 0.15,-0.61, 9.62, 6794
25.13, 101648.53, 0.21,-0.63, 9.67, 6799
25.13, 101646.06, 0.27,-0.56, 9.58, 6804
25.13, 101646.06, 0.27,-0.54, 9.46, 6809
25.13, 101646.06, 0.23,-0.54, 9.54, 6814
25.13, 101646.06, 0.21,-0.54, 9.62, 6819
25.13, 101646.06, 0.19,-0.52, 9.46, 6824
25.13, 101646.06, 0.25,-0.54, 9.73, 6829
25.13, 101646.06, 0.21,-0.52, 9.69, 6834
25.13, 101645.34, 0.21,-0.59, 9.64, 6839
25.13, 101645.34, 0.21,-0.54, 9.56, 6844
25.13, 101645.34, 0.17,-0.65, 9.62, 6849
25.13, 101645.34, 0.21,-0.61, 9.71, 6854
25.13, 101645.34, 0.17,-0.56, 9.67, 6859
25.13, 101645.34, 0.25,-0.57, 9.64, 6864
25.13, 101645.34, 0.19,-0.59, 9.58, 6869
25.13, 101647.38, 0.27,-0.61, 9.60, 6874
25.13, 101647.38, 0.21,-0.54, 9.64, 6879
25.13, 101647.38, 0.21,-0.59, 9.66, 6884
25.13, 101647.38, 0.21,-0.57, 9.67, 6889
25.13, 101647.38, 0.25,-0.56, 9.60, 6894
25.13, 101647.38, 0.23,-0.54, 9.62, 6899
25.13, 101647.38, 0.27,-0.50, 9.64, 6904
25.13, 101648.69, 0.23,-0.50, 9.64, 6909
25.13, 101648.69, 0.25,-0.54, 9.60, 6914
25.13, 101648.69, 0.29,-0.59, 9.64, 6919
25.13, 101648.69, 0.31,-0.59, 9.54, 6924
25.13, 101648.69, 0.27,-0.54, 9.66, 6929
25.13, 101648.69, 0.27,-0.50, 9.66, 6934
25.13, 101648.69, 0.27,-0.59, 9.45, 6939
25.13, 101649.09, 0.21,-0.56, 9.48, 6944
25.13, 101649.09, 0.17,-0.59, 9.58, 6949
25.13, 101649.09, 0.23,-0.59, 9.64, 6954
25.13, 101649.09, 0.15,-0.54, 9.62, 6959
25.13, 101649.09, 0.23,-0.52, 9.67, 6964
25.13, 101649.09, 0.27,-0.52, 9.62, 6969
25.13, 101649.09, 0.23,-0.56, 9.66, 6974
25.13, 101646.95, 0.17,-0.56, 9.66, 6979
25.13, 101646.95, 0.21,-0.59, 9.64, 6984
25.13, 101646.95, 0.27,-0.59, 9.60, 6989
25.13, 101646.95, 0.21,-0.67, 9.64, 6994
25.13, 101646.95, 0.21,-0.57, 9.64, 6999
25.13, 101646.95, 0.15,-0.61, 9.58, 7004
25.13, 101646.95, 0.21,-0.61, 9.60, 7009
25.13, 101647.11, 0.21,-0.59, 9.64, 7014
25.13, 101647.11, 0.23,-0.57, 9.62, 7019
25.13, 101647.11, 0.23,-0.56, 9.62, 7024
25.13, 101647.11, 0.21,-0.63, 9.60, 7029
25.13, 101647.11, 0.29,-0.71, 9.56, 7034
25.13, 101647.11, 0.31,-0.61, 9.60, 7039
25.13, 101647.11, 0.19,-0.56, 9.75, 7044
25.13, 101645.90, 0.23,-0.56, 9.73, 7049
25.13, 101645.90, 0.21,-0.56, 9.62, 7054
25.13, 101645.90, 0.17,-0.50, 9.62, 7059
25.13, 101645.90, 0.13,-0.54, 9.58, 7064
25.13, 101645.90, 0.21,-0.54, 9.64, 7069
25.13, 101645.90, 0.17,-0.52, 9.62, 7074
25.13, 101645.90, 0.17,-0.50, 9.67, 7079
25.13, 101648.11, 0.13,-0.48, 9.66, 7084
25.13, 101648.11, 0.11,-0.56, 9.62, 7089
25.13, 101648.11, 0.13,-0.56, 9.62, 7094
25.13, 101648.11, 0.19,-0.63, 9.54, 7099
25.13, 101648.11, 0.17,-0.54, 9.62, 7104
25.13, 101648.11, 0.27,-0.59, 9.60, 7109
25.13, 101648.11, 0.23,-0.54, 9.62, 7114
25.13, 101645.84, 0.23,-0.57, 9.73, 7119
25.13, 101645.84, 0.23,-0.61, 9.69, 7124
25.13, 101645.84, 0.23,-0.54, 9.67, 7129
25.13, 101645.84, 0.21,-0.56, 9.66, 7134
25.13, 101645.84, 0.15,-0.59, 9.71, 7139
25.13, 101645.84, 0.25,-0.69, 9.46, 7144
25.13, 101645.84, 0.25,-0.34, 9.75, 7149
25.13, 101645.84, 0.27,-0.50, 9.75, 7154
25.13, 101644.97, 0.27,-0.56, 9.69, 7159
25.13, 101644.97, 0.25,-0.52, 9.71, 7164
25.13, 101644.97, 0.25,-0.48, 9.54, 7172
25.13, 101644.97, 0.25,-0.52, 9.56, 7176
25.13, 101644.97, 0.19,-0.57, 9.60, 7181
25.13, 101644.97, 0.21,-0.57, 9.60, 7186
25.13, 101646.95, 0.25,-0.61, 9.62, 7191
25.13, 101646.95, 0.25,-0.57, 9.58, 7196
25.13, 101646.95, 0.19,-0.61, 9.62, 7201
25.13, 101646.95, 0.23,-0.59, 9.62, 7206
25.13, 101646.95, 0.19,-0.59, 9.62, 7211
25.13, 101646.95, 0.21,-0.52, 9.66, 7216
25.13, 101646.95, 0.17,-0.50, 9.62, 7221
25.13, 101645.90, 0.21,-0.61, 9.62, 7226
25.13, 101645.90, 0.17,-0.59, 9.62, 7231
25.13, 101645.90, 0.13,-0.56, 9.67, 7236
25.13, 101645.90, 0.19,-0.61, 9.67, 7241
25.13, 101645.90, 0.19,-0.61, 9.64, 7246
25.13, 101645.90, 0.25,-0.59, 9.62, 7251
25.13, 101645.90, 0.17,-0.59, 9.64, 7256
25.13, 101648.53, 0.15,-0.50, 9.64, 7261
25.13, 101648.53, 0.23,-0.63, 9.60, 7266
25.13, 101648.53, 0.19,-0.57, 9.66, 7271
25.13, 101648.53, 0.23,-0.61, 9.69, 7276
25.13, 101648.53, 0.25,-0.63, 9.58, 7281
25.13, 101648.53, 0.21,-0.59, 9.58, 7286
25.13, 101648.53, 0.23,-0.63, 9.60, 7291
25.13, 101648.53, 0.19,-0.57, 9.60, 7296
25.13, 101647.04, 0.17,-0.59, 9.62, 7301
25.13, 101647.04, 0.19,-0.57, 9.64, 7306
25.13, 101647.04, 0.19,-0.59, 9.62, 7311
25.13, 101647.04, 0.23,-0.61, 9.66, 7316
25.13, 101647.04, 0.15,-0.57, 9.48, 7321
25.13, 101647.04, 0.27,-0.54, 9.56, 7326
25.13, 101647.04, 0.29,-0.61, 9.71, 7331
25.13, 101644.25, 0.27,-0.59, 9.54, 7336
25.13, 101644.25, 0.21,-0.48, 9.52, 7341
25.13, 101644.25, 0.21,-0.50, 9.39, 7346
25.13, 101644.25, 0.29,-0.52, 9.71, 7351
25.13, 101644.25, 0.27,-0.59, 9.58, 7356
25.13, 101644.25, 0.31,-0.54, 9.60, 7361
25.13, 101644.25, 0.23,-0.54, 9.52, 7366
25.13, 101644.80, 0.23,-0.54, 9.58, 7371
25.13, 101644.80, 0.21,-0.52, 9.62, 7376
25.13, 101644.80, 0.19,-0.59, 9.62, 7381
25.13, 101644.80, 0.25,-0.56, 9.60, 7386
25.13, 101644.80, 0.29,-0.57, 9.66, 7391
25.13, 101644.80, 0.21,-0.54, 9.64, 7396
25.13, 101644.80, 0.21,-0.56, 9.64, 7401
25.13, 101647.04, 0.19,-0.57, 9.66, 7406
25.13, 101647.04, 0.21,-0.57, 9.66, 7411
25.13, 101647.04, 0.25,-0.57, 9.64, 7416
25.13, 101647.04, 0.19,-0.57, 9.64, 7421
25.13, 101647.04, 0.17,-0.56, 9.66, 7426
25.13, 101647.04, 0.23,-0.52, 9.67, 7431
25.13, 101647.04, 0.25,-0.46, 9.69, 7436
25.13, 101646.23, 0.23,-0.61, 9.62, 7441
25.13, 101646.23, 0.25,-0.61, 9.58, 7446
25.13, 101646.23, 0.25,-0.65, 9.60, 7451
25.13, 101646.23, 0.19,-0.63, 9.87, 7456
25.13, 101646.23, 0.17,-0.54, 9.69, 7461
25.13, 101646.23, 0.21,-0.50, 9.62, 7466
25.13, 101646.23, 0.19,-0.54, 9.60, 7471
25.13, 101646.62, 0.25,-0.57, 9.58, 7476
25.13, 101646.62, 0.27,-0.54, 9.64, 7481
25.13, 101646.62, 0.19,-0.56, 9.58, 7486
25.13, 101646.62, 0.23,-0.50, 9.66, 7491
25.13, 101646.62, 0.21,-0.57, 9.66, 7496
25.13, 101646.62, 0.23,-0.56, 9.62, 7501
25.13, 101646.62, 0.27,-0.52, 9.62, 7506
25.13, 101647.61, 0.31,-0.56, 9.66, 7511
25.13, 101647.61, 0.23,-0.54, 9.58, 7516
25.13, 101647.61, 0.23,-0.56, 9.60, 7521
25.13, 101647.61, 0.21,-0.50, 9.58, 7526
25.13, 101647.61, 0.34,-0.54, 9.66, 7531
25.13, 101647.61, 0.27,-0.59, 9.60, 7536
25.13, 101647.61, 0.21,-0.61, 9.62, 7541
25.13, 101647.04, 0.19,-0.48, 9.60, 7546
25.13, 101647.04, 0.15,-0.57, 9.60, 7551
25.13, 101647.04, 0.27,-0.59, 9.69, 7556
25.13, 101647.04, 0.23,-0.50, 9.67, 7561
25.13, 101647.04, 0.25,-0.65, 9.69, 7566
25.13, 101647.04, 0.13,-0.61, 9.45, 7571
25.13, 101647.04, 0.23,-0.54, 9.41, 7576
25.13, 101645.90, 0.15,-0.56, 9.48, 7581
25.13, 101645.90, 0.21,-0.50, 9.52, 7586
25.13, 101645.90, 0.25,-0.54, 9.62, 7591
25.13, 101645.90, 0.21,-0.54, 9.69, 7596
25.13, 101645.90, 0.19,-0.59, 9.64, 7601
25.13, 101645.90, 0.15,-0.54, 9.56, 7606
25.13, 101645.90, 0.25,-0.56, 9.67, 7611
25.13, 101647.04, 0.23,-0.57, 9.60, 7616
25.13, 101647.04, 0.21,-0.52, 9.64, 7621
25.13, 101647.04, 0.21,-0.52, 9.62, 7626
25.13, 101647.04, 0.21,-0.54, 9.60, 7631
25.13, 101647.04, 0.19,-0.57, 9.69, 7636
25.13, 101647.04, 0.23,-0.56, 9.66, 7641
25.13, 101647.04, 0.19,-0.52, 9.62, 7646
25.13, 101647.04, 0.21,-0.57, 9.52, 7651
25.13, 101647.22, 0.23,-0.63, 9.67, 7656
25.13, 101647.22, 0.19,-0.52, 9.64, 7661
25.13, 101647.22, 0.23,-0.50, 9.66, 7666
25.13, 101647.22, 0.21,-0.57, 9.58, 7674
25.13, 101647.22, 0.19,-0.57, 9.62, 7678
25.13, 101647.22, 0.21,-0.61, 9.67, 7683
25.13, 101647.04, 0.21,-0.63, 9.67, 7688
25.13, 101647.04, 0.21,-0.59, 9.62, 7693
25.13, 101647.04, 0.23,-0.59, 9.60, 7698
25.13, 101647.04, 0.23,-0.56, 9.64, 7703
25.13, 101647.04, 0.25,-0.52, 9.66, 7708
25.13, 101647.04, 0.23,-0.56, 9.67, 7713
25.13, 101647.04, 0.23,-0.54, 9.67, 7718
25.13, 101644.47, 0.33,-0.57, 9.67, 7723
25.13, 101644.47, 0.25,-0.59, 9.71, 7728
25.13, 101644.47, 0.27,-0.59, 9.56, 7733
25.13, 101644.47, 0.19,-0.63, 9.60, 7738
25.13, 101644.47, 0.21,-0.61, 9.54, 7743
25.13, 101644.47, 0.25,-0.59, 9.62, 7748
25.13, 101644.47, 0.19,-0.57, 9.62, 7753
25.13, 101648.20, 0.17,-0.56, 9.58, 7758
25.13, 101648.20, 0.27,-0.48, 9.43, 7763
25.13, 101648.20, 0.25,-0.50, 9.35, 7768
25.13, 101648.20, 0.23,-0.59, 9.52, 7773
25.13, 101648.20, 0.19,-0.57, 9.75, 7778
25.13, 101648.20, 0.21,-0.59, 9.71, 7783
25.13, 101648.20, 0.17,-0.54, 9.62, 7788
25.13, 101648.20, 0.10,-0.63, 9.62, 7793
25.13, 101648.09, 0.17,-0.57, 9.62, 7798
25.13, 101648.09, 0.17,-0.63, 9.62, 7803
25.13, 101648.09, 0.21,-0.57, 9.67, 7808
25.13, 101648.09, 0.17,-0.67, 9.66, 7813
25.13, 101648.09, 0.21,-0.56, 9.60, 7818
25.13, 101648.09, 0.19,-0.56, 9.67, 7823
25.13, 101648.09, 0.17,-0.48, 9.67, 7828
25.13, 101645.12, 0.19,-0.57, 9.60, 7833
25.13, 101645.12, 0.15,-0.54, 9.60, 7838
25.13, 101645.12, 0.17,-0.61, 9.60, 7843
25.13, 101645.12, 0.21,-0.56, 9.64, 7848
25.13, 101645.12, 0.25,-0.54, 9.69, 7853
25.13, 101645.12, 0.27,-0.59, 9.58, 7858
25.13, 101645.12, 0.27,-0.54, 9.62, 7863
25.13, 101646.71, 0.27,-0.54, 9.69, 7868
25.13, 101646.71, 0.29,-0.57, 9.60, 7873
25.13, 101646.71, 0.27,-0.50, 9.56, 7878
25.13, 101646.71, 0.25,-0.46, 9.62, 7883
25.13, 101646.71, 0.33,-0.52, 9.46, 7888
25.13, 101646.71, 0.23,-0.56, 9.45, 7893
25.13, 101646.71, 0.23,-0.56, 9.54, 7898
25.13, 101647.20, 0.27,-0.63, 9.54, 7903
25.13, 101647.20, 0.23,-0.57, 9.60, 7908
25.13, 101647.20, 0.23,-0.54, 9.69, 7913
25.13, 101647.20, 0.25,-0.50, 9.60, 7918
25.13, 101647.20, 0.25,-0.54, 9.66, 7923
25.13, 101647.20, 0.29,-0.57, 9.60, 7928
25.13, 101647.20, 0.17,-0.59, 9.66, 7933
25.13, 101645.08, 0.19,-0.59, 9.67, 7938
25.13, 101645.08, 0.25,-0.56, 9.66, 7943
25.13, 101645.08, 0.21,-0.57, 9.60, 7948
25.13, 101645.08, 0.21,-0.59, 9.64, 7953
25.13, 101645.08, 0.19,-0.57, 9.66, 7958
25.13, 101645.08, 0.21,-0.59, 9.67, 7963
25.13, 101645.08, 0.25,-0.54, 9.64, 7968
25.13, 101646.56, 0.23,-0.61, 9.60, 7973
25.13, 101646.56, 0.17,-0.54, 9.60, 7978
25.13, 101646.56, 0.19,-0.44, 9.66, 7983
25.13, 101646.56, 0.19,-0.56, 9.66, 7988
25.13, 101646.56, 0.21,-0.57, 9.77, 7993
25.13, 101646.56, 0.15,-0.57, 9.64, 7998
25.13, 101646.56, 0.21,-0.57, 9.60, 8003
25.13, 101647.04, 0.19,-0.57, 9.60, 8008
25.13, 101647.04, 0.21,-0.54, 9.60, 8013
25.13, 101647.04, 0.31,-0.54, 9.60, 8018
25.13, 101647.04, 0.15,-0.57, 9.52, 8023
25.13, 101647.04, 0.21,-0.52, 9.58, 8028
25.13, 101647.04, 0.23,-0.54, 9.66, 8033
25.13, 101647.04, 0.17,-0.52, 9.60, 8038
25.13, 101648.03, 0.17,-0.59, 9.66, 8043
25.13, 101648.03, 0.23,-0.52, 9.60, 8048
25.13, 101648.03, 0.15,-0.52, 9.64, 8053
25.13, 101648.03, 0.17,-0.57, 9.62, 8058
25.13, 101648.03, 0.25,-0.59, 9.60, 8063
25.13, 101648.03, 0.25,-0.59, 9.60, 8068
25.13, 101648.03, 0.27,-0.59, 9.56, 8073
25.13, 101646.28, 0.25,-0.57, 9.60, 8078
25.13, 101646.28, 0.21,-0.57, 9.54, 8083
25.13, 101646.28, 0.25,-0.52, 9.54, 8088
25.13, 101646.28, 0.27,-0.48, 9.60, 8093
25.13, 101646.28, 0.33,-0.54, 9.56, 8098
25.13, 101646.28, 0.27,-0.59, 9.66, 8103
25.13, 101646.28, 0.19,-0.56, 9.54, 8108
25.13, 101647.70, 0.21,-0.56, 9.66, 8113
25.13, 101647.70, 0.19,-0.52, 9.62, 8118
25.13, 101647.70, 0.15,-0.59, 9.75, 8123
25.13, 101647.70, 0.19,-0.59, 9.73, 8128
25.13, 101647.70, 0.15,-0.54, 9.62, 8133
25.13, 101647.70, 0.21,-0.56, 9.60, 8138
25.13, 101647.70, 0.29,-0.59, 9.62, 8143
25.13, 101647.70, 0.31,-0.52, 9.66, 8148
25.13, 101646.62, 0.27,-0.50, 9.62, 8153
25.13, 101646.62, 0.23,-0.52, 9.62, 8158
25.13, 101646.62, 0.27,-0.57, 9.64, 8163
25.13, 101646.62, 0.21,-0.59, 9.64, 8168
25.13, 101646.62, 0.25,-0.59, 9.67, 8176
25.13, 101646.62, 0.19,-0.56, 9.60, 8180
25.13, 101645.61, 0.17,-0.57, 9.62, 8185
25.13, 101645.61, 0.23,-0.54, 9.41, 8190
25.13, 101645.61, 0.31,-0.61, 9.45, 8195
25.13, 101645.61, 0.33,-0.57, 9.58, 8200
25.13, 101645.61, 0.33,-0.65, 9.67, 8205
25.13, 101645.61, 0.29,-0.59, 9.67, 8210
25.13, 101645.61, 0.29,-0.61, 9.58, 8215
25.13, 101647.09, 0.27,-0.56, 9.64, 8220
25.13, 101647.09, 0.21,-0.54, 9.56, 8225
25.13, 101647.09, 0.21,-0.59, 9.64, 8230
25.13, 101647.09, 0.25,-0.56, 9.69, 8235
25.13, 101647.09, 0.19,-0.59, 9.64, 8240
25.13, 101647.09, 0.21,-0.52, 9.64, 8245
25.13, 101647.09, 0.21,-0.54, 9.62, 8250
25.13, 101646.38, 0.23,-0.57, 9.67, 8255
25.13, 101646.38, 0.19,-0.57, 9.64, 8260
25.13, 101646.38, 0.21,-0.56, 9.67, 8265
25.13, 101646.38, 0.23,-0.46, 9.62, 8270
25.13, 101646.38, 0.19,-0.52, 9.66, 8275
25.13, 101646.38, 0.19,-0.52, 9.62, 8280
25.13, 101646.38, 0.25,-0.50, 9.66, 8285
25.13, 101646.38, 0.21,-0.61, 9.46, 8290
25.13, 101645.30, 0.21,-0.57, 9.46, 8295
25.13, 101645.30, 0.23,-0.52, 9.77, 8300
25.13, 101645.30, 0.23,-0.57, 9.48, 8305
25.13, 101645.30, 0.21,-0.50, 9.54, 8310
25.13, 101645.30, 0.23,-0.57, 9.60, 8315
25.13, 101645.30, 0.33,-0.54, 9.66, 8320
25.13, 101645.30, 0.25,-0.57, 9.67, 8325
25.13, 101645.12, 0.23,-0.57, 9.67, 8330
25.13, 101645.12, 0.19,-0.57, 9.60, 8335
25.13, 101645.12, 0.15,-0.56, 9.66, 8340
25.13, 101645.12, 0.27,-0.59, 9.66, 8345
25.13, 101645.12, 0.23,-0.61, 9.60, 8350
25.13, 101645.12, 0.23,-0.52, 9.58, 8355
25.13, 101645.12, 0.15,-0.57, 9.58, 8360
25.13, 101646.28, 0.25,-0.63, 9.64, 8365
25.13, 101646.28, 0.15,-0.57, 9.60, 8370
25.13, 101646.28, 0.17,-0.52, 9.60, 8375
25.13, 101646.28, 0.21,-0.57, 9.58, 8380
25.13, 101646.28, 0.27,-0.56, 9.64, 8385
25.13, 101646.28, 0.25,-0.61, 9.60, 8390
25.13, 101646.28, 0.25,-0.57, 9.58, 8395
25.13, 101643.48, 0.27,-0.59, 9.58, 8400
25.13, 101643.48, 0.23,-0.54, 9.69, 8405
25.13, 101643.48, 0.36,-0.52, 9.60, 8410
25.13, 101643.48, 0.29,-0.52, 9.58, 8415
25.13, 101643.48, 0.19,-0.56, 9.56, 8420
25.13, 101643.48, 0.25,-0.50, 9.60, 8425
25.13, 101643.48, 0.23,-0.44, 9.62, 8430
25.13, 101643.48, 0.15,-0.57, 9.64, 8435
25.13, 101643.48, 0.15,-0.61, 9.64, 8440
25.13, 101643.48, 0.15,-0.57, 9.58, 8445
25.13, 101643.48, 0.21,-0.54, 9.56, 8450
25.13, 101643.48, 0.23,-0.54, 9.69, 8455
25.13, 101643.48, 0.21,-0.59, 9.60, 8460
25.13, 101643.48, 0.21,-0.57, 9.60, 8465
25.13, 101647.59, 0.19,-0.57, 9.62, 8470
25.13, 101647.59, 0.23,-0.56, 9.62, 8475
25.13, 101647.59, 0.21,-0.61, 9.66, 8480
25.13, 101647.59, 0.17,-0.57, 9.62, 8485
25.13, 101647.59, 0.23,-0.57, 9.64, 8490
25.13, 101647.59, 0.23,-0.57, 9.60, 8495
25.13, 101647.59, 0.25,-0.57, 9.66, 8500
25.13, 101646.78, 0.33,-0.56, 9.60, 8505
25.13, 101646.78, 0.29,-0.61, 9.66, 8510
25.13, 101646.78, 0.31,-0.69, 9.60, 8515
25.13, 101646.78, 0.25,-0.63, 9.54, 8520
25.13, 101646.78, 0.36,-0.61, 9.50, 8525
25.13, 101646.78, 0.27,-0.61, 9.58, 8530
25.13, 101646.78, 0.25,-0.61, 9.56, 8535
25.13, 101648.09, 0.15,-0.61, 9.62, 8540
25.13, 101648.09, 0.19,-0.59, 9.67, 8545
25.13, 101648.09, 0.27,-0.54, 9.62, 8550
25.13, 101648.09, 0.19,-0.56, 9.66, 8555
25.13, 101648.09, 0.21,-0.56, 9.60, 8560
25.13, 101648.09, 0.25,-0.57, 9.64, 8565
25.13, 101648.09, 0.23,-0.61, 9.62, 8570
25.13, 101646.12, 0.21,-0.59, 9.66, 8575
25.13, 101646.12, 0.17,-0.56, 9.62, 8580
25.13, 101646.12, 0.21,-0.54, 9.58, 8585
25.13, 101646.12, 0.21,-0.57, 9.64, 8590
25.13, 101646.12, 0.21,-0.56, 9.64, 8595
25.13, 101646.12, 0.23,-0.50, 9.66, 8600
25.13, 101646.12, 0.21,-0.48, 9.67, 8605
25.13, 101646.44, 0.21,-0.50, 9.50, 8610
25.13, 101646.44, 0.21,-0.61, 9.56, 8615
25.13, 101646.44, 0.27,-0.59, 9.64, 8620
25.13, 101646.44, 0.25,-0.52, 9.62, 8625
25.13, 101646.44, 0.17,-0.52, 9.62, 8630
25.13, 101646.44, 0.25,-0.59, 9.54, 8635
25.13, 101646.44, 0.23,-0.59, 9.60, 8640
25.13, 101646.44, 0.21,-0.54, 9.48, 8645
25.13, 101647.27, 0.33,-0.52, 9.50, 8650
25.13, 101647.27, 0.23,-0.59, 9.60, 8655
25.13, 101647.27, 0.19,-0.61, 9.50, 8660
25.13, 101647.27, 0.23,-0.67, 9.60, 8665
25.13, 101647.27, 0.17,-0.61, 9.56, 8670
25.13, 101647.27, 0.19,-0.56, 9.56, 8678
25.13, 101645.28, 0.19,-0.54, 9.69, 8684
25.13, 101645.28, 0.10,-0.52, 9.48, 8688
25.13, 101645.28, 0.15,-0.54, 9.66, 8693
25.13, 101645.28, 0.23,-0.56, 9.64, 8698
25.13, 101645.28, 0.23,-0.52, 9.64, 8703
25.13, 101645.28, 0.19,-0.59, 9.62, 8708
25.13, 101645.28, 0.23,-0.54, 9.66, 8713
25.13, 101643.73, 0.21,-0.54, 9.62, 8718
25.13, 101643.73, 0.27,-0.56, 9.60, 8723
25.13, 101643.73, 0.19,-0.57, 9.56, 8728
25.13, 101643.73, 0.21,-0.57, 9.60, 8733
25.13, 101643.73, 0.25,-0.61, 9.64, 8738
25.13, 101643.73, 0.25,-0.65, 9.64, 8743
25.13, 101643.73, 0.19,-0.63, 9.62, 8748
25.13, 101644.73, 0.29,-0.54, 9.81, 8753
25.13, 101644.73, 0.27,-0.56, 9.75, 8758
25.13, 101644.73, 0.23,-0.59, 9.66, 8763
25.13, 101644.73, 0.13,-0.56, 9.50, 8768
25.13, 101644.73, 0.21,-0.52, 9.58, 8773
25.13, 101644.73, 0.25,-0.57, 9.60, 8778
25.13, 101644.73, 0.31,-0.57, 9.66, 8783
25.13, 101644.95, 0.25,-0.52, 9.64, 8788
25.13, 101644.95, 0.27,-0.54, 9.60, 8793
25.13, 101644.95, 0.25,-0.57, 9.66, 8798
25.13, 101644.95, 0.21,-0.54, 9.58, 8803
25.13, 101644.95, 0.25,-0.57, 9.62, 8808
25.13, 101644.95, 0.31,-0.56, 9.58, 8813
25.13, 101644.95, 0.19,-0.56, 9.64, 8818
25.13, 101646.93, 0.21,-0.56, 9.66, 8823
25.13, 101646.93, 0.25,-0.57, 9.60, 8828
25.13, 101646.93, 0.23,-0.59, 9.62, 8833
25.13, 101646.93, 0.23,-0.63, 9.60, 8838
25.13, 101646.93, 0.21,-0.56, 9.60, 8843
25.13, 101646.93, 0.17,-0.56, 9.56, 8848
25.13, 101646.93, 0.17,-0.59, 9.62, 8853
25.13, 101646.93, 0.23,-0.52, 9.77, 8858
25.13, 101645.06, 0.23,-0.52, 9.54, 8863
25.13, 101645.06, 0.25,-0.54, 9.60, 8868
25.13, 101645.06, 0.19,-0.57, 9.64, 8873
25.13, 101645.06, 0.23,-0.61, 9.62, 8878
25.13, 101645.06, 0.19,-0.57, 9.52, 8883
25.13, 101645.06, 0.21,-0.61, 9.39, 8888
25.13, 101645.06, 0.25,-0.52, 9.52, 8893
25.13, 101644.07, 0.29,-0.48, 9.66, 8898
25.13, 101644.07, 0.21,-0.46, 9.62, 8903
25.13, 101644.07, 0.21,-0.54, 9.58, 8908
25.13, 101644.07, 0.19,-0.52, 9.60, 8913
25.13, 101644.07, 0.21,-0.56, 9.56, 8918
25.13, 101644.07, 0.21,-0.57, 9.60, 8923
25.13, 101644.07, 0.29,-0.59, 9.52, 8928
25.13, 101645.77, 0.31,-0.56, 9.54, 8933
25.13, 101645.77, 0.27,-0.50, 9.58, 8938
25.13, 101645.77, 0.27,-0.59, 9.62, 8943
25.13, 101645.77, 0.29,-0.57, 9.64, 8948
25.13, 101645.77, 0.29,-0.59, 9.62, 8953
25.13, 101645.77, 0.23,-0.52, 9.62, 8958
25.13, 101645.77, 0.19,-0.56, 9.62, 8963
25.13, 101647.16, 0.25,-0.50, 9.64, 8968
25.13, 101647.16, 0.21,-0.61, 9.69, 8973
25.13, 101647.16, 0.25,-0.54, 9.54, 8978
25.13, 101647.16, 0.21,-0.59, 9.62, 8983
25.13, 101647.16, 0.25,-0.52, 9.67, 8988
25.13, 101647.16, 0.29,-0.59, 9.67, 8993
25.13, 101647.16, 0.17,-0.59, 9.67, 8998
25.13, 101643.96, 0.17,-0.57, 9.39, 9003
25.13, 101643.96, 0.17,-0.63, 9.64, 9008
25.13, 101643.96, 0.19,-0.54, 9.62, 9013
25.13, 101643.96, 0.19,-0.54, 9.62, 9018
25.13, 101643.96, 0.21,-0.56, 9.50, 9023
25.13, 101643.96, 0.25,-0.56, 9.52, 9028
25.13, 101643.96, 0.27,-0.54, 9.60, 9033
25.13, 101646.49, 0.25,-0.56, 9.58, 9038
25.13, 101646.49, 0.31,-0.56, 9.62, 9043
25.13, 101646.49, 0.25,-0.48, 9.64, 9048
25.13, 101646.49, 0.19,-0.52, 9.64, 9053
25.13, 101646.49, 0.21,-0.56, 9.54, 9058
25.13, 101646.49, 0.19,-0.54, 9.60, 9063
25.13, 101646.49, 0.23,-0.54, 9.66, 9068
25.13, 101642.91, 0.25,-0.56, 9.69, 9073
25.13, 101642.91, 0.23,-0.52, 9.64, 9078
25.13, 101642.91, 0.27,-0.50, 9.64, 9083
25.13, 101642.91, 0.29,-0.59, 9.58, 9088
25.13, 101642.91, 0.21,-0.61, 9.60, 9093
25.13, 101642.91, 0.17,-0.56, 9.43, 9098
25.13, 101642.91, 0.19,-0.59, 9.71, 9103
25.13, 101645.34, 0.21,-0.61, 9.66, 9108
25.13, 101645.34, 0.25,-0.59, 9.52, 9113
25.13, 101645.34, 0.27,-0.52, 9.54, 9118
25.13, 101645.34, 0.23,-0.59, 9.54, 9123
25.13, 101645.34, 0.19,-0.63, 9.58, 9128
25.13, 101645.34, 0.23,-0.61, 9.60, 9133
25.13, 101645.34, 0.27,-0.57, 9.66, 9138
25.13, 101645.45, 0.15,-0.56, 9.54, 9143
25.13, 101645.45, 0.23,-0.56, 9.58, 9148
25.13, 101645.45, 0.23,-0.56, 9.66, 9153
25.13, 101645.45, 0.29,-0.56, 9.64, 9158
25.13, 101645.45, 0.23,-0.56, 9.58, 9163
25.13, 101645.45, 0.21,-0.61, 9.60, 9168
25.13, 101645.45, 0.21,-0.57, 9.66, 9173
25.13, 101648.14, 0.23,-0.54, 9.60, 9180
25.13, 101648.14, 0.23,-0.57, 9.77, 9185
25.13, 101648.14, 0.23,-0.59, 9.69, 9190
25.13, 101648.14, 0.15,-0.56, 9.50, 9195
25.13, 101648.14, 0.17,-0.50, 9.54, 9200
25.13, 101648.14, 0.25,-0.67, 9.62, 9205
25.13, 101648.14, 0.19,-0.63, 9.46, 9210
25.13, 101646.44, 0.13,-0.59, 9.73, 9215
25.13, 101646.44, 0.27,-0.57, 9.67, 9220
25.13, 101646.44, 0.27,-0.52, 9.67, 9225
25.13, 101646.44, 0.27,-0.57, 9.66, 9230
25.13, 101646.44, 0.17,-0.56, 9.67, 9235
25.13, 101646.44, 0.27,-0.65, 9.73, 9240
25.13, 101646.44, 0.27,-0.57, 9.60, 9245
25.13, 101645.50, 0.25,-0.61, 9.58, 9250
25.13, 101645.50, 0.21,-0.52, 9.56, 9255
25.13, 101645.50, 0.27,-0.56, 9.60, 9260
25.13, 101645.50, 0.21,-0.57, 9.64, 9265
25.13, 101645.50, 0.29,-0.54, 9.69, 9270
25.13, 101645.50, 0.19,-0.56, 9.62, 9275
25.13, 101645.50, 0.23,-0.56, 9.67, 9280
25.13, 101645.12, 0.25,-0.56, 9.64, 9285
25.13, 101645.12, 0.17,-0.59, 9.62, 9290
25.13, 101645.12, 0.19,-0.67, 9.56, 9295
25.13, 101645.12, 0.29,-0.57, 9.69, 9300
25.13, 101645.12, 0.23,-0.48, 9.73, 9305
25.13, 101645.12, 0.23,-0.54, 9.56, 9310
25.13, 101645.12, 0.19,-0.48, 9.77, 9315
25.13, 101645.67, 0.25,-0.57, 9.45, 9320
25.13, 101645.67, 0.19,-0.56, 9.52, 9325
25.13, 101645.67, 0.27,-0.61, 9.64, 9330
25.13, 101645.67, 0.23,-0.61, 9.64, 9335
25.13, 101645.67, 0.25,-0.57, 9.64, 9340
25.13, 101645.67, 0.21,-0.54, 9.60, 9345
25.13, 101645.67, 0.27,-0.57, 9.62, 9350
25.13, 101645.67, 0.21,-0.61, 9.60, 9355
25.13, 101647.16, 0.25,-0.56, 9.62, 9360
25.13, 101647.16, 0.27,-0.56, 9.60, 9365
25.13, 101647.16, 0.33,-0.57, 9.67, 9370
25.13, 101647.16, 0.27,-0.63, 9.60, 9375
25.13, 101647.16, 0.23,-0.63, 9.58, 9380
25.13, 101647.16, 0.23,-0.57, 9.67, 9385
25.13, 101647.16, 0.21,-0.57, 9.64, 9390
25.13, 101647.05, 0.19,-0.56, 9.64, 9395
25.13, 101647.05, 0.25,-0.52, 9.64, 9400
25.13, 101647.05, 0.19,-0.57, 9.66, 9405
25.13, 101647.05, 0.23,-0.52, 9.58, 9410
25.13, 101647.05, 0.23,-0.54, 9.67, 9415
25.13, 101647.05, 0.19,-0.57, 9.41, 9420
25.13, 101647.05, 0.17,-0.57, 9.52, 9425
25.13, 101647.05, 0.21,-0.54, 9.66, 9430
25.13, 101647.05, 0.19,-0.57, 9.50, 9435
25.13, 101647.05, 0.17,-0.59, 9.75, 9440
25.13, 101647.05, 0.25,-0.59, 9.69, 9445
25.13, 101647.05, 0.21,-0.59, 9.66, 9450
25.13, 101647.05, 0.17,-0.56, 9.67, 9455
25.13, 101647.05, 0.25,-0.54, 9.66, 9460
25.13, 101648.95, 0.17,-0.57, 9.71, 9465
25.13, 101648.95, 0.25,-0.57, 9.66, 9470
25.13, 101648.95, 0.21,-0.56, 9.66, 9475
25.13, 101648.95, 0.17,-0.57, 9.62, 9480
25.13, 101648.95, 0.21,-0.59, 9.62, 9485
25.13, 101648.95, 0.17,-0.57, 9.64, 9490
25.13, 101648.95, 0.21,-0.59, 9.64, 9495
25.13, 101647.16, 0.19,-0.59, 9.58, 9500
25.13, 101647.16, 0.19,-0.54, 9.62, 9505
25.13, 101647.16, 0.31,-0.50, 9.62, 9510
25.13, 101647.16, 0.33,-0.48, 9.64, 9515
25.13, 101647.16, 0.21,-0.56, 9.62, 9520
25.13, 101647.16, 0.19,-0.54, 9.56, 9525
25.13, 101647.16, 0.21,-0.61, 9.54, 9530
25.13, 101646.66, 0.15,-0.59, 9.62, 9535
25.13, 101646.66, 0.19,-0.56, 9.67, 9540
25.13, 101646.66, 0.17,-0.61, 9.69, 9545
25.13, 101646.66, 0.19,-0.54, 9.64, 9550
25.13, 101646.66, 0.25,-0.52, 9.60, 9555
25.13, 101646.66, 0.29,-0.52, 9.64, 9560
25.13, 101646.66, 0.19,-0.59, 9.69, 9565
25.13, 101648.20, 0.17,-0.56, 9.66, 9570
25.13, 101648.20, 0.23,-0.56, 9.71, 9575
25.13, 101648.20, 0.31,-0.52, 9.64, 9580
25.13, 101648.20, 0.23,-0.56, 9.62, 9585
25.13, 101648.20, 0.21,-0.59, 9.67, 9590
25.13, 101648.20, 0.19,-0.57, 9.69, 9595
25.13, 101648.20, 0.17,-0.67, 9.67, 9600
25.13, 101648.31, 0.15,-0.61, 9.62, 9605
25.13, 101648.31, 0.15,-0.57, 9.62, 9610
25.13, 101648.31, 0.29,-0.59, 9.64, 9615
25.13, 101648.31, 0.25,-0.50, 9.66, 9620
25.13, 101648.31, 0.25,-0.56, 9.62, 9625
25.13, 101648.31, 0.29,-0.56, 9.71, 9630
25.13, 101648.31, 0.23,-0.57, 9.77, 9635
25.13, 101646.77, 0.19,-0.56, 9.62, 9640
25.13, 101646.77, 0.21,-0.44, 9.60, 9645
25.13, 101646.77, 0.21,-0.54, 9.66, 9650
25.13, 101646.77, 0.25,-0.54, 9.87, 9655
25.13, 101646.77, 0.27,-0.56, 9.66, 9660
25.13, 101646.77, 0.23,-0.59, 9.62, 9665
25.13, 101646.77, 0.21,-0.57, 9.54, 9670
25.13, 101647.81, 0.27,-0.54, 9.60, 9675
25.13, 101647.81, 0.29,-0.57, 9.54, 9683
25.13, 101647.81, 0.23,-0.54, 9.60, 9687
25.13, 101647.81, 0.19,-0.57, 9.67, 9692
25.13, 101647.81, 0.23,-0.57, 9.60, 9697
25.13, 101647.81, 0.19,-0.61, 9.58, 9702
25.13, 101647.81, 0.23,-0.63, 9.60, 9707
25.13, 101648.97, 0.21,-0.56, 9.62, 9712
25.13, 101648.97, 0.21,-0.57, 9.64, 9717
25.13, 101648.97, 0.17,-0.56, 9.62, 9722
25.13, 101648.97, 0.19,-0.50, 9.66, 9727
25.13, 101648.97, 0.25,-0.56, 9.77, 9732
25.13, 101648.97, 0.27,-0.61, 9.79, 9737
25.13, 101648.97, 0.21,-0.54, 9.48, 9742
25.13, 101650.28, 0.23,-0.59, 9.54, 9747
25.13, 101650.28, 0.15,-0.57, 9.62, 9752
25.13, 101650.28, 0.23,-0.56, 9.67, 9757
25.13, 101650.28, 0.25,-0.52, 9.73, 9762
25.13, 101650.28, 0.29,-0.54, 9.58, 9767
25.13, 101650.28, 0.25,-0.59, 9.56, 9772
25.13, 101650.28, 0.21,-0.57, 9.66, 9777
25.13, 101646.83, 0.21,-0.61, 9.64, 9782
25.13, 101646.83, 0.27,-0.61, 9.64, 9787
25.13, 101646.83, 0.23,-0.65, 9.58, 9792
25.13, 101646.83, 0.17,-0.56, 9.56, 9797
25.13, 101646.83, 0.17,-0.61, 9.58, 9802
25.13, 101646.83, 0.17,-0.52, 9.58, 9807
25.13, 101646.83, 0.23,-0.54, 9.60, 9812
25.13, 101648.62, 0.23,-0.56, 9.62, 9817
25.13, 101648.62, 0.21,-0.54, 9.66, 9822
25.13, 101648.62, 0.19,-0.54, 9.62, 9827
25.13, 101648.62, 0.17,-0.52, 9.64, 9832
25.13, 101648.62, 0.13,-0.54, 9.71, 9837
25.13, 101648.62, 0.17,-0.54, 9.69, 9842
25.13, 101648.62, 0.19,-0.42, 9.52, 9847
25.13, 101648.62, 0.25,-0.54, 9.77, 9852
25.13, 101648.70, 0.23,-0.52, 9.75, 9857
25.13, 101648.70, 0.17,-0.61, 9.69, 9862
25.13, 101648.70, 0.23,-0.52, 9.69, 9867
25.13, 101648.70, 0.15,-0.61, 9.62, 9872
25.13, 101648.70, 0.23,-0.61, 9.64, 9877
25.13, 101648.70, 0.27,-0.56, 9.52, 9882
25.13, 101648.70, 0.27,-0.54, 9.58, 9887
25.13, 101646.88, 0.27,-0.50, 9.52, 9892
25.13, 101646.88, 0.17,-0.56, 9.58, 9897
25.13, 101646.88, 0.13,-0.57, 9.58, 9902
25.13, 101646.88, 0.17,-0.63, 9.66, 9907
25.13, 101646.88, 0.25,-0.57, 9.60, 9912
25.13, 101646.88, 0.21,-0.52, 9.73, 9917
25.13, 101646.88, 0.23,-0.57, 9.62, 9922
25.13, 101646.49, 0.21,-0.57, 9.66, 9927
25.13, 101646.49, 0.21,-0.56, 9.66, 9932
25.13, 101646.49, 0.23,-0.57, 9.58, 9937
25.13, 101646.49, 0.19,-0.57, 9.56, 9942
25.13, 101646.49, 0.21,-0.57, 9.69, 9947
25.13, 101646.49, 0.23,-0.57, 9.60, 9952
25.13, 101646.49, 0.15,-0.54, 9.69, 9957
25.13, 101645.84, 0.23,-0.59, 9.67, 9962
25.13, 101645.84, 0.13,-0.56, 9.54, 9967
25.13, 101645.84, 0.21,-0.63, 9.62, 9972
25.13, 101645.84, 0.15,-0.57, 9.62, 9977
25.13, 101645.84, 0.21,-0.54, 9.58, 9982
25.13, 101645.84, 0.23,-0.52, 9.58, 9987
25.13, 101645.84, 0.23,-0.65, 9.64, 9992
25.13, 101646.83, 0.17,-0.54, 9.69, 9997
25.13, 101646.83, 0.27,-0.56, 9.66, 10002
25.13, 101646.83, 0.25,-0.61, 9.67, 10007
25.13, 101646.83, 0.21,-0.59, 9.62, 10012
25.13, 101646.83, 0.21,-0.59, 9.62, 10017
25.13, 101646.83, 0.23,-0.54, 9.67, 10022
25.13, 101646.83, 0.19,-0.61, 9.60, 10027
25.13, 101648.80, 0.21,-0.57, 9.67, 10032
25.13, 101648.80, 0.17,-0.54, 9.62, 10037
25.13, 101648.80, 0.27,-0.56, 9.64, 10042
25.13, 101648.80, 0.25,-0.52, 9.60, 10047
25.13, 101648.80, 0.21,-0.59, 9.58, 10052
25.13, 101648.80, 0.25,-0.63, 9.60, 10057
25.13, 101648.80, 0.34,-0.67, 9.67, 10062
25.13, 101648.64, 0.19,-0.59, 9.66, 10067
25.13, 101648.64, 0.17,-0.52, 9.73, 10072
25.13, 101648.64, 0.27,-0.46, 9.92, 10077
25.13, 101648.64, 0.15,-0.46, 9.64, 10082
25.13, 101648.64, 0.17,-0.57, 9.73, 10087
25.13, 101648.64, 0.19,-0.57, 9.67, 10092
25.13, 101648.64, 0.17,-0.57, 9.66, 10097
25.13, 101644.89, 0.25,-0.56, 9.64, 10102
25.13, 101644.89, 0.29,-0.54, 9.62, 10107
25.13, 101644.89, 0.25,-0.59, 9.52, 10112
25.13, 101644.89, 0.23,-0.57, 9.58, 10117
25.13, 101644.89, 0.27,-0.56, 9.54, 10122
25.13, 101644.89, 0.17,-0.56, 9.62, 10127
25.13, 101644.89, 0.27,-0.59, 9.62, 10132
25.13, 101647.54, 0.25,-0.57, 9.67, 10137
25.13, 101647.54, 0.27,-0.61, 9.66, 10142
25.13, 101647.54, 0.25,-0.59, 9.62, 10147
25.13, 101647.54, 0.17,-0.59, 9.66, 10152
25.13, 101647.54, 0.17,-0.63, 9.60, 10157
25.13, 101647.54, 0.19,-0.59, 9.54, 10162
25.13, 101647.54, 0.29,-0.59, 9.66, 10167
25.13, 101648.30, 0.25,-0.54, 9.66, 10172
25.13, 101648.30, 0.21,-0.54, 9.52, 10177
25.13, 101648.30, 0.21,-0.57, 9.58, 10189
25.13, 101648.30, 0.21,-0.56, 9.60, 10193
25.13, 101648.30, 0.17,-0.52, 9.60, 10198
25.13, 101648.30, 0.19,-0.57, 9.58, 10203
25.13, 101648.48, 0.25,-0.59, 9.64, 10208
25.13, 101648.48, 0.21,-0.48, 9.62, 10213
25.13, 101648.48, 0.17,-0.46, 9.71, 10218
25.13, 101648.48, 0.21,-0.54, 9.52, 10223
25.13, 101648.48, 0.23,-0.61, 9.67, 10228
25.13, 101648.48, 0.19,-0.56, 9.41, 10233
25.13, 101648.48, 0.25,-0.56, 9.56, 10238
25.13, 101647.27, 0.25,-0.54, 9.60, 10243
25.13, 101647.27, 0.17,-0.59, 9.58, 10248
25.13, 101647.27, 0.23,-0.54, 9.58, 10253
25.13, 101647.27, 0.23,-0.65, 9.56, 10258
25.13, 101647.27, 0.23,-0.61, 9.64, 10263
25.13, 101647.27, 0.25,-0.61, 9.64, 10268
25.13, 101647.27, 0.27,-0.59, 9.64, 10273
25.13, 101647.27, 0.29,-0.59, 9.58, 10278
25.13, 101645.01, 0.19,-0.54, 9.62, 10283
25.13, 101645.01, 0.17,-0.59, 9.64, 10288
25.13, 101645.01, 0.17,-0.65, 9.58, 10293
25.13, 101645.01, 0.27,-0.63, 9.66, 10298
25.13, 101645.01, 0.23,-0.61, 9.64, 10303
25.13, 101645.01, 0.21,-0.56, 9.66, 10308
25.13, 101645.01, 0.25,-0.63, 9.60, 10313
25.13, 101646.88, 0.27,-0.54, 9.56, 10318
25.13, 101646.88, 0.29,-0.61, 9.64, 10323
25.13, 101646.88, 0.23,-0.54, 9.69, 10328
25.13, 101646.88, 0.21,-0.63, 9.56, 10333
25.13, 101646.88, 0.21,-0.52, 9.67, 10338
25.13, 101646.88, 0.27,-0.61, 9.73, 10343
25.13, 101646.88, 0.21,-0.59, 9.66, 10348
25.13, 101649.67, 0.31,-0.46, 9.73, 10353
25.13, 101649.67, 0.17,-0.52, 9.56, 10358
25.13, 101649.67, 0.11,-0.59, 9.62, 10363
25.13, 101649.67, 0.23,-0.56, 9.66, 10368
25.13, 101649.67, 0.21,-0.59, 9.62, 10373
25.13, 101649.67, 0.15,-0.61, 9.73, 10378
25.13, 101649.67, 0.19,-0.56, 9.67, 10383
25.13, 101646.72, 0.19,-0.50, 9.71, 10388
25.13, 101646.72, 0.15,-0.57, 9.58, 10393
25.13, 101646.72, 0.21,-0.57, 9.58, 10398
25.13, 101646.72, 0.23,-0.52, 9.64, 10403
25.13, 101646.72, 0.21,-0.59, 9.67, 10408
25.13, 101646.72, 0.17,-0.61, 9.60, 10413
25.13, 101646.72, 0.21,-0.56, 9.66, 10418
25.13, 101647.16, 0.21,-0.61, 9.64, 10423
25.13, 101647.16, 0.25,-0.52, 9.64, 10428
25.13, 101647.16, 0.23,-0.54, 9.60, 10433
25.13, 101647.16, 0.23,-0.56, 9.62, 10438
25.13, 101647.16, 0.23,-0.54, 9.67, 10443
25.13, 101647.16, 0.21,-0.61, 9.58, 10448
25.13, 101647.16, 0.17,-0.50, 9.58, 10453
25.13, 101648.03, 0.23,-0.56, 9.67, 10458
25.13, 101648.03, 0.17,-0.57, 9.69, 10463
25.13, 101648.03, 0.19,-0.56, 9.48, 10468
25.13, 101648.03, 0.25,-0.54, 9.56, 10473
25.13, 101648.03, 0.29,-0.56, 9.64, 10478
25.13, 101648.03, 0.25,-0.52, 9.58, 10483
25.13, 101648.03, 0.17,-0.50, 9.64, 10488
25.13, 101648.79, 0.21,-0.52, 9.66, 10493
25.13, 101648.79, 0.17,-0.52, 9.62, 10498
25.13, 101648.79, 0.23,-0.57, 9.66, 10503
25.13, 101648.79, 0.19,-0.56, 9.66, 10508
25.13, 101648.79, 0.23,-0.57, 9.66, 10513
25.13, 101648.79, 0.21,-0.52, 9.62, 10518
25.13, 101648.79, 0.19,-0.56, 9.60, 10523
25.13, 101647.54, 0.19,-0.61, 9.64, 10528
25.13, 101647.54, 0.19,-0.56, 9.60, 10533
25.13, 101647.54, 0.19,-0.63, 9.62, 10538
25.13, 101647.54, 0.29,-0.61, 9.56, 10543
25.13, 101647.54, 0.21,-0.65, 9.64, 10548
25.13, 101647.54, 0.29,-0.59, 9.66, 10553
25.13, 101647.54, 0.25,-0.59, 9.87, 10558
25.13, 101643.96, 0.19,-0.63, 9.56, 10563
25.13, 101643.96, 0.21,-0.54, 9.62, 10568
25.13, 101643.96, 0.19,-0.59, 9.56, 10573
25.13, 101643.96, 0.19,-0.54, 9.56, 10578
25.13, 101643.96, 0.21,-0.59, 9.52, 10583
25.13, 101643.96, 0.21,-0.57, 9.56, 10588
25.13, 101643.96, 0.19,-0.54, 9.60, 10593
25.13, 101648.57, 0.25,-0.57, 9.71, 10598
25.13, 101648.57, 0.21,-0.57, 9.67, 10603
25.13, 101648.57, 0.27,-0.54, 9.58, 10608
25.13, 101648.57, 0.19,-0.59, 9.60, 10613
25.13, 101648.57, 0.34,-0.54, 9.69, 10618
25.13, 101648.57, 0.27,-0.56, 9.69, 10623
25.13, 101648.57, 0.27,-0.54, 9.60, 10628
25.13, 101648.57, 0.23,-0.56, 9.56, 10633
25.13, 101648.12, 0.21,-0.59, 9.58, 10638
25.13, 101648.12, 0.21,-0.56, 9.52, 10643
25.13, 101648.12, 0.17,-0.56, 9.56, 10648
25.13, 101648.12, 0.23,-0.61, 9.64, 10653
25.13, 101648.12, 0.21,-0.57, 9.66, 10658
25.13, 101648.12, 0.25,-0.54, 9.62, 10663
25.13, 101648.12, 0.27,-0.56, 9.52, 10668
25.13, 101646.88, 0.31,-0.52, 9.69, 10673
25.13, 101646.88, 0.21,-0.56, 9.64, 10678
25.13, 101646.88, 0.25,-0.57, 9.62, 10683
25.13, 101646.88, 0.13,-0.52, 9.67, 10691
25.13, 101646.88, 0.23,-0.50, 9.67, 10697
25.13, 101646.88, 0.21,-0.56, 9.71, 10701
25.13, 101647.38, 0.25,-0.56, 9.62, 10706
25.13, 101647.38, 0.21,-0.48, 9.62, 10711
25.13, 101647.38, 0.21,-0.52, 9.64, 10716
25.13, 101647.38, 0.19,-0.59, 9.58, 10721
25.13, 101647.38, 0.19,-0.54, 9.52, 10726
25.13, 101647.38, 0.21,-0.52, 9.56, 10731
25.13, 101647.38, 0.29,-0.56, 9.58, 10736
25.13, 101646.72, 0.21,-0.57, 9.58, 10741
25.13, 101646.72, 0.23,-0.61, 9.56, 10746
25.13, 101646.72, 0.19,-0.52, 9.60, 10751
25.13, 101646.72, 0.21,-0.57, 9.60, 10756
25.13, 101646.72, 0.17,-0.54, 9.67, 10761
25.13, 101646.72, 0.19,-0.59, 9.67, 10766
25.13, 101646.72, 0.23,-0.56, 9.58, 10771
25.13, 101646.66, 0.19,-0.54, 9.66, 10776
25.13, 101646.66, 0.19,-0.57, 9.64, 10781
25.13, 101646.66, 0.23,-0.54, 9.62, 10786
25.13, 101646.66, 0.25,-0.59, 9.69, 10791
25.13, 101646.66, 0.23,-0.57, 9.62, 10796
25.13, 101646.66, 0.19,-0.59, 9.56, 10801
25.13, 101646.66, 0.15,-0.59, 9.58, 10806
25.13, 101646.48, 0.21,-0.63, 9.66, 10811
25.13, 101646.48, 0.29,-0.59, 9.54, 10816
25.13, 101646.48, 0.27,-0.63, 9.52, 10821
25.13, 101646.48, 0.19,-0.59, 9.77, 10826
25.13, 101646.48, 0.29,-0.59, 9.77, 10831
25.13, 101646.48, 0.29,-0.59, 9.60, 10836
25.13, 101646.48, 0.31,-0.61, 9.60, 10841
25.13, 101646.48, 0.31,-0.63, 9.66, 10846
25.13, 101647.20, 0.29,-0.63, 9.62, 10851
25.13, 101647.20, 0.21,-0.40, 9.64, 10856
25.13, 101647.20, 0.17,-0.52, 9.60, 10861
25.13, 101647.20, 0.19,-0.59, 9.56, 10866
25.13, 101647.20, 0.25,-0.61, 9.60, 10871
25.13, 101647.20, 0.19,-0.59, 9.73, 10876
25.13, 101647.20, 0.19,-0.67, 9.67, 10881
25.13, 101646.98, 0.25,-0.61, 9.62, 10886
25.13, 101646.98, 0.21,-0.63, 9.64, 10891
25.13, 101646.98, 0.25,-0.61, 9.62, 10896
25.13, 101646.98, 0.21,-0.59, 9.66, 10901
25.13, 101646.98, 0.21,-0.54, 9.66, 10906
25.13, 101646.98, 0.13,-0.54, 9.67, 10911
25.13, 101646.98, 0.17,-0.59, 9.62, 10916
25.13, 101648.46, 0.19,-0.57, 9.58, 10921
25.13, 101648.46, 0.23,-0.56, 9.64, 10926
25.13, 101648.46, 0.25,-0.46, 9.62, 10931
25.13, 101648.46, 0.15,-0.54, 9.73, 10936
25.13, 101648.46, 0.27,-0.57, 9.81, 10941
25.13, 101648.46, 0.23,-0.56, 9.52, 10946
25.13, 101648.46, 0.23,-0.50, 9.67, 10951
25.13, 101646.98, 0.19,-0.57, 9.67, 10956
25.13, 101646.98, 0.29,-0.61, 9.64, 10961
25.13, 101646.98, 0.23,-0.56, 9.62, 10966
25.13, 101646.98, 0.25,-0.57, 9.69, 10971
25.13, 101646.98, 0.25,-0.50, 9.58, 10976
25.13, 101646.98, 0.33,-0.50, 9.46, 10981
25.13, 101646.98, 0.29,-0.57, 9.58, 10986
25.13, 101649.12, 0.23,-0.54, 9.66, 10991
25.13, 101649.12, 0.19,-0.52, 9.62, 10996
25.13, 101649.12, 0.25,-0.48, 9.62, 11001
25.13, 101649.12, 0.21,-0.56, 9.58, 11006
25.13, 101649.12, 0.23,-0.56, 9.64, 11011
25.13, 101649.12, 0.17,-0.61, 9.62, 11016
25.13, 101649.12, 0.23,-0.57, 9.60, 11021
25.13, 101649.69, 0.23,-0.56, 9.60, 11026
25.13, 101649.69, 0.15,-0.52, 9.64, 11031
25.13, 101649.69, 0.21,-0.52, 9.62, 11036
25.13, 101649.69, 0.23,-0.40, 9.64, 11041
25.13, 101649.69, 0.34,-0.54, 9.79, 11046
25.13, 101649.69, 0.23,-0.56, 9.58, 11051
25.13, 101649.69, 0.27,-0.63, 9.73, 11056
25.13, 101647.80, 0.19,-0.59, 9.64, 11061
25.13, 101647.80, 0.19,-0.56, 9.62, 11066
25.13, 101647.80, 0.23,-0.57, 9.48, 11071
25.13, 101647.80, 0.21,-0.59, 9.66, 11076
25.13, 101647.80, 0.17,-0.54, 9.56, 11081
25.13, 101647.80, 0.21,-0.57, 9.64, 11086
25.13, 101647.80, 0.23,-0.52, 9.58, 11091
25.13, 101644.90, 0.29,-0.54, 9.64, 11096
25.13, 101644.90, 0.23,-0.54, 9.60, 11101
25.13, 101644.90, 0.19,-0.54, 9.58, 11106
25.13, 101644.90, 0.25,-0.57, 9.62, 11111
25.13, 101644.90, 0.23,-0.57, 9.64, 11116
25.13, 101644.90, 0.21,-0.61, 9.60, 11121
25.13, 101644.90, 0.25,-0.63, 9.67, 11126
25.13, 101644.16, 0.25,-0.57, 9.66, 11131
25.13, 101644.16, 0.15,-0.50, 9.64, 11136
25.13, 101644.16, 0.17,-0.61, 9.60, 11141
25.13, 101644.16, 0.19,-0.50, 9.66, 11146
25.13, 101644.16, 0.13,-0.57, 9.56, 11151
25.13, 101644.16, 0.23,-0.56, 9.60, 11156
25.13, 101644.16, 0.19,-0.54, 9.58, 11161
25.13, 101644.99, 0.21,-0.50, 9.64, 11166
25.13, 101644.99, 0.19,-0.52, 9.67, 11171
25.13, 101644.99, 0.19,-0.59, 9.43, 11176
25.13, 101644.99, 0.27,-0.63, 9.52, 11181
25.13, 101644.99, 0.27,-0.63, 9.52, 11186
25.13, 101644.99, 0.25,-0.52, 9.64, 11194
25.13, 101644.99, 0.31,-0.56, 9.71, 11198
25.13, 101645.39, 0.31,-0.54, 9.69, 11203
25.13, 101645.39, 0.25,-0.54, 9.69, 11208
25.13, 101645.39, 0.27,-0.54, 9.64, 11213
25.13, 101645.39, 0.23,-0.57, 9.60, 11218
25.13, 101645.39, 0.19,-0.57, 9.56, 11223
25.13, 101645.39, 0.19,-0.56, 9.58, 11228
25.13, 101645.39, 0.23,-0.52, 9.66, 11233
25.13, 101642.04, 0.27,-0.54, 9.64, 11238
25.13, 101642.04, 0.25,-0.59, 9.64, 11243
25.13, 101642.04, 0.19,-0.63, 9.58, 11248
25.13, 101642.04, 0.19,-0.61, 9.81, 11253
25.13, 101642.04, 0.13,-0.61, 9.48, 11258
25.13, 101642.04, 0.10,-0.61, 9.69, 11263
25.13, 101642.04, 0.17,-0.57, 9.67, 11268
25.13, 101645.48, 0.23,-0.59, 9.58, 11273
25.13, 101645.48, 0.19,-0.52, 9.67, 11278
25.13, 101645.48, 0.19,-0.56, 9.60, 11283
25.13, 101645.48, 0.21,-0.57, 9.67, 11288
25.13, 101645.48, 0.23,-0.57, 9.66, 11293
25.13, 101645.48, 0.17,-0.54, 9.64, 11298
25.13, 101645.48, 0.21,-0.52, 9.62, 11303
25.13, 101643.58, 0.21,-0.57, 9.54, 11308
25.13, 101643.58, 0.17,-0.54, 9.60, 11313
25.13, 101643.58, 0.19,-0.63, 9.62, 11318
25.13, 101643.58, 0.17,-0.59, 9.66, 11323
25.13, 101643.58, 0.27,-0.56, 9.67, 11328
25.13, 101643.58, 0.23,-0.57, 9.60, 11333
25.13, 101643.58, 0.23,-0.61, 9.62, 11338
25.13, 101643.58, 0.23,-0.57, 9.64, 11343
25.13, 101645.16, 0.27,-0.52, 9.56, 11348
25.13, 101645.16, 0.25,-0.52, 9.58, 11353
25.13, 101645.16, 0.23,-0.54, 9.60, 11358
25.13, 101645.16, 0.21,-0.57, 9.54, 11363
25.13, 101645.16, 0.25,-0.63, 9.73, 11368
25.13, 101645.16, 0.25,-0.56, 9.67, 11373
25.13, 101645.16, 0.19,-0.54, 9.77, 11378
25.13, 101643.52, 0.25,-0.57, 9.66, 11383
25.13, 101643.52, 0.17,-0.61, 9.58, 11388
25.13, 101643.52, 0.17,-0.57, 9.62, 11393
25.13, 101643.52, 0.17,-0.52, 9.58, 11398
25.13, 101643.52, 0.19,-0.56, 9.54, 11403
25.13, 101643.52, 0.17,-0.56, 9.58, 11408
25.13, 101643.52, 0.25,-0.52, 9.64, 11413
25.13, 101644.02, 0.23,-0.57, 9.67, 11418
25.13, 101644.02, 0.25,-0.57, 9.66, 11423
25.13, 101644.02, 0.23,-0.61, 9.58, 11428
25.13, 101644.02, 0.19,-0.65, 9.62, 11433
25.13, 101644.02, 0.17,-0.61, 9.67, 11438
25.13, 101644.02, 0.19,-0.57, 9.66, 11443
25.13, 101644.02, 0.21,-0.59, 9.64, 11448
25.13, 101642.59, 0.19,-0.54, 9.58, 11453
25.13, 101642.59, 0.19,-0.57, 9.54, 11458
25.13, 101642.59, 0.25,-0.59, 9.62, 11463
25.13, 101642.59, 0.25,-0.54, 9.58, 11468
25.13, 101642.59, 0.19,-0.56, 9.60, 11473
25.13, 101642.59, 0.23,-0.57, 9.64, 11478
25.13, 101642.59, 0.15,-0.54, 9.50, 11483
25.13, 101646.39, 0.19,-0.57, 9.54, 11488
25.13, 101646.39, 0.21,-0.59, 9.67, 11493
25.13, 101646.39, 0.19,-0.52, 9.60, 11498
25.13, 101646.39, 0.15,-0.54, 9.60, 11503
25.13, 101646.39, 0.21,-0.57, 9.62, 11508
25.13, 101646.39, 0.21,-0.57, 9.58, 11513
25.13, 101646.39, 0.27,-0.56, 9.54, 11518
25.13, 101645.06, 0.25,-0.48, 9.56, 11523
25.13, 101645.06, 0.25,-0.57, 9.54, 11528
25.13, 101645.06, 0.21,-0.54, 9.60, 11533
25.13, 101645.06, 0.23,-0.57, 9.66, 11538
25.13, 101645.06, 0.21,-0.56, 9.66, 11543
25.13, 101645.06, 0.25,-0.50, 9.62, 11548
25.13, 101645.06, 0.25,-0.59, 9.56, 11553
25.13, 101646.88, 0.19,-0.52, 9.66, 11558
25.13, 101646.88, 0.25,-0.57, 9.62, 11563
25.13, 101646.88, 0.23,-0.56, 9.62, 11568
25.13, 101646.88, 0.21,-0.61, 9.52, 11573
25.13, 101646.88, 0.21,-0.57, 9.67, 11578
25.13, 101646.88, 0.19,-0.54, 9.71, 11583
25.13, 101646.88, 0.23,-0.59, 9.73, 11588
25.13, 101645.23, 0.19,-0.48, 9.62, 11593
25.13, 101645.23, 0.19,-0.50, 9.79, 11598
25.13, 101645.23, 0.25,-0.56, 9.50, 11603
25.13, 101645.23, 0.21,-0.59, 9.54, 11608
25.13, 101645.23, 0.29,-0.57, 9.54, 11613
25.13, 101645.23, 0.25,-0.59, 9.60, 11618
25.13, 101645.23, 0.27,-0.54, 9.62, 11623
25.13, 101645.48, 0.17,-0.52, 9.64, 11628
25.13, 101645.48, 0.21,-0.48, 9.69, 11633
25.13, 101645.48, 0.25,-0.56, 9.60, 11638
25.13, 101645.48, 0.23,-0.56, 9.64, 11643
25.13, 101645.48, 0.23,-0.52, 9.62, 11648
25.13, 101645.48, 0.27,-0.50, 9.58, 11653
25.13, 101645.48, 0.23,-0.54, 9.71, 11658
25.13, 101645.34, 0.23,-0.56, 9.66, 11663
25.13, 101645.34, 0.21,-0.54, 9.67, 11668
25.13, 101645.34, 0.21,-0.57, 9.64, 11673
25.13, 101645.34, 0.23,-0.61, 9.64, 11678
25.13, 101645.34, 0.23,-0.61, 9.66, 11683
25.13, 101645.34, 0.23,-0.57, 9.66, 11688
25.13, 101645.34, 0.19,-0.57, 9.62, 11696
25.13, 101645.33, 0.15,-0.61, 9.54, 11700
25.13, 101645.33, 0.21,-0.61, 9.64, 11705
25.13, 101645.33, 0.25,-0.57, 9.66, 11710
25.13, 101645.33, 0.25,-0.48, 9.62, 11715
25.13, 101645.33, 0.17,-0.56, 9.64, 11720
25.13, 101645.33, 0.19,-0.54, 9.69, 11725
25.13, 101645.33, 0.21,-0.56, 9.66, 11730
25.13, 101644.52, 0.25,-0.59, 9.64, 11735
25.13, 101644.52, 0.23,-0.59, 9.66, 11740
25.13, 101644.52, 0.23,-0.57, 9.58, 11745
25.13, 101644.52, 0.21,-0.56, 9.60, 11750
25.13, 101644.52, 0.19,-0.57, 9.62, 11755
25.13, 101644.52, 0.25,-0.59, 9.60, 11760
25.13, 101644.52, 0.25,-0.61, 9.58, 11765
25.13, 101647.80, 0.23,-0.56, 9.60, 11770
25.13, 101647.80, 0.21,-0.56, 9.62, 11775
25.13, 101647.80, 0.19,-0.54, 9.58, 11780
25.13, 101647.80, 0.19,-0.56, 9.58, 11785
25.13, 101647.80, 0.21,-0.61, 9.58, 11790
25.13, 101647.80, 0.23,-0.57, 9.67, 11795
25.13, 101647.80, 0.25,-0.57, 9.66, 11800
25.13, 101649.56, 0.25,-0.54, 9.33, 11805
25.13, 101649.56, 0.23,-0.67, 9.52, 11810
25.13, 101649.56, 0.23,-0.63, 9.50, 11815
25.13, 101649.56, 0.31,-0.61, 9.62, 11820
25.13, 101649.56, 0.23,-0.63, 9.64, 11825
25.13, 101649.56, 0.23,-0.54, 9.58, 11830
25.13, 101649.56, 0.19,-0.56, 9.62, 11835
25.13, 101649.56, 0.23,-0.48, 9.62, 11840
25.13, 101646.64, 0.23,-0.54, 9.67, 11845
25.13, 101646.64, 0.23,-0.52, 9.64, 11850
25.13, 101646.64, 0.23,-0.56, 9.64, 11855
25.13, 101646.64, 0.23,-0.52, 9.66, 11860
25.13, 101646.64, 0.25,-0.59, 9.66, 11865
25.13, 101646.64, 0.29,-0.52, 9.60, 11870
25.13, 101646.64, 0.19,-0.59, 9.60, 11875
25.13, 101644.55, 0.27,-0.61, 9.56, 11880
25.13, 101644.55, 0.19,-0.57, 9.64, 11885
25.13, 101644.55, 0.19,-0.56, 9.62, 11890
25.13, 101644.55, 0.19,-0.56, 9.62, 11895
25.13, 101644.55, 0.19,-0.56, 9.64, 11900
25.13, 101644.55, 0.23,-0.52, 9.69, 11905
25.13, 101644.55, 0.31,-0.52, 9.75, 11910
25.13, 101643.84, 0.23,-0.52, 9.56, 11915
25.13, 101643.84, 0.27,-0.54, 9.85, 11920
25.13, 101643.84, 0.23,-0.54, 9.71, 11925
25.13, 101643.84, 0.23,-0.56, 9.83, 11930
25.13, 101643.84, 0.27,-0.54, 9.48, 11935
25.13, 101643.84, 0.29,-0.57, 9.50, 11940
25.13, 101643.84, 0.29,-0.59, 9.56, 11945
25.13, 101647.03, 0.31,-0.61, 9.60, 11950
25.13, 101647.03, 0.23,-0.57, 9.66, 11955
25.13, 101647.03, 0.21,-0.54, 9.56, 11960
25.13, 101647.03, 0.29,-0.56, 9.77, 11965
25.13, 101647.03, 0.27,-0.63, 9.66, 11970
25.13, 101647.03, 0.27,-0.61, 9.64, 11975
25.13, 101647.03, 0.21,-0.54, 9.58, 11980
25.13, 101644.23, 0.25,-0.56, 9.58, 11985
25.13, 101644.23, 0.27,-0.57, 9.60, 11990
25.13, 101644.23, 0.29,-0.54, 9.64, 11995
25.13, 101644.23, 0.31,-0.56, 9.62, 12000
25.13, 101644.23, 0.19,-0.54, 9.62, 12005
25.13, 101644.23, 0.15,-0.54, 9.62, 12010
25.13, 101644.23, 0.23,-0.56, 9.58, 12015
25.13, 101645.48, 0.23,-0.57, 9.60, 12020
25.13, 101645.48, 0.25,-0.56, 9.58, 12025
25.13, 101645.48, 0.17,-0.54, 9.66, 12030
25.13, 101645.48, 0.17,-0.59, 9.58, 12035
25.13, 101645.48, 0.21,-0.63, 9.60, 12040
25.13, 101645.48, 0.21,-0.59, 9.64, 12045
25.13, 101645.48, 0.17,-0.56, 9.45, 12050
25.13, 101644.00, 0.13,-0.57, 9.46, 12055
25.13, 101644.00, 0.23,-0.61, 9.60, 12060
25.13, 101644.00, 0.27,-0.65, 9.60, 12065
25.13, 101644.00, 0.31,-0.61, 9.62, 12070
25.13, 101644.00, 0.31,-0.56, 9.62, 12075
25.13, 101644.00, 0.25,-0.54, 9.54, 12080
25.13, 101644.00, 0.21,-0.57, 9.60, 12085
25.13, 101644.99, 0.23,-0.61, 9.66, 12090
25.13, 101644.99, 0.25,-0.61, 9.54, 12095
25.13, 101644.99, 0.25,-0.57, 9.69, 12100
25.13, 101644.99, 0.27,-0.56, 9.62, 12105
25.13, 101644.99, 0.23,-0.63, 9.60, 12110
25.13, 101644.99, 0.19,-0.59, 9.62, 12115
25.13, 101644.99, 0.17,-0.57, 9.62, 12120
25.13, 101644.83, 0.21,-0.57, 9.64, 12125
25.13, 101644.83, 0.21,-0.57, 9.62, 12130
25.13, 101644.83, 0.21,-0.56, 9.62, 12135
25.13, 101644.83, 0.31,-0.56, 9.69, 12140
25.13, 101644.83, 0.17,-0.57, 9.62, 12145
25.13, 101644.83, 0.23,-0.46, 9.58, 12150
25.13, 101644.83, 0.17,-0.59, 9.62, 12155
25.13, 101645.27, 0.23,-0.63, 9.67, 12160
25.13, 101645.27, 0.15,-0.57, 9.50, 12165
25.13, 101645.27, 0.19,-0.57, 9.56, 12170
25.13, 101645.27, 0.25,-0.56, 9.64, 12175
25.13, 101645.27, 0.23,-0.52, 9.67, 12180
25.13, 101645.27, 0.25,-0.63, 9.66, 12185
25.13, 101645.27, 0.25,-0.54, 9.56, 12190
