External Temperature (C), Barometric Pressure (Pa), Acceleration X, Acceleration Y, Acceleration Z
25.23, 101653.36, 0.23,-0.56, 9.60, 2367
25.23, 101653.36, 0.27,-0.59, 9.67, 2379
25.23, 101653.36, 0.27,-0.52, 9.60, 2383
25.23, 101653.36, 0.15,-0.44, 9.60, 2388
25.23, 101653.36, 0.23,-0.46, 9.56, 2393
25.23, 101653.36, 0.29,-0.40, 9.67, 2398
25.23, 101652.64, 0.23,-0.56, 9.62, 2403
25.23, 101652.64, 0.25,-0.50, 9.62, 2408
25.23, 101652.64, 0.31,-0.59, 9.69, 2413
25.23, 101652.64, 0.29,-0.59, 9.50, 2418
25.23, 101652.64, 0.21,-0.54, 9.71, 2423
25.23, 101652.64, 0.29,-0.52, 9.67, 2428
25.23, 101652.64, 0.21,-0.42, 9.69, 2433
25.23, 101652.64, 0.33,-0.57, 9.62, 2438
25.23, 101652.64, 0.25,-0.56, 9.64, 2443
25.23, 101652.64, 0.29,-0.57, 9.69, 2448
25.23, 101652.64, 0.36,-0.61, 9.62, 2453
25.23, 101652.64, 0.27,-0.61, 9.62, 2458
25.23, 101652.64, 0.27,-0.57, 9.60, 2463
25.23, 101652.64, 0.23,-0.52, 9.66, 2468
25.23, 101651.05, 0.23,-0.59, 9.67, 2473
25.23, 101651.05, 0.21,-0.57, 9.71, 2478
25.23, 101651.05, 0.21,-0.59, 9.66, 2483
25.23, 101651.05, 0.19,-0.52, 9.66, 2488
25.23, 101651.05, 0.23,-0.50, 9.64, 2493
25.23, 101651.05, 0.17,-0.48, 9.69, 2498
25.23, 101651.05, 0.23,-0.48, 9.60, 2503
25.23, 101653.52, 0.31,-0.48, 9.66, 2508
25.23, 101653.52, 0.23,-0.59, 9.56, 2513
25.23, 101653.52, 0.25,-0.56, 9.66, 2518
25.23, 101653.52, 0.19,-0.63, 9.58, 2523
25.23, 101653.52, 0.25,-0.57, 9.50, 2528
25.23, 101653.52, 0.23,-0.56, 9.52, 2533
25.23, 101653.52, 0.29,-0.54, 9.56, 2538
25.23, 101652.70, 0.23,-0.54, 9.62, 2543
25.23, 101652.70, 0.27,-0.57, 9.64, 2548
25.23, 101652.70, 0.21,-0.59, 9.58, 2553
25.23, 101652.70, 0.29,-0.52, 9.54, 2558
25.23, 101652.70, 0.25,-0.54, 9.64, 2563
25.23, 101652.70, 0.23,-0.54, 9.60, 2568
25.23, 101652.70, 0.23,-0.57, 9.66, 2573
25.23, 101652.70, 0.25,-0.57, 9.69, 2578
25.23, 101653.36, 0.27,-0.59, 9.67, 2583
25.23, 101653.36, 0.25,-0.54, 9.66, 2588
25.23, 101653.36, 0.29,-0.52, 9.56, 2593
25.23, 101653.36, 0.25,-0.52, 9.62, 2598
25.23, 101653.36, 0.25,-0.54, 9.66, 2603
25.23, 101653.36, 0.25,-0.54, 9.62, 2608
25.23, 101653.36, 0.25,-0.59, 9.64, 2613
25.23, 101650.94, 0.21,-0.50, 9.56, 2618
25.23, 101650.94, 0.13,-0.59, 9.58, 2623
25.23, 101650.94, 0.15,-0.52, 9.50, 2628
25.23, 101650.94, 0.23,-0.54, 9.46, 2633
25.23, 101650.94, 0.23,-0.59, 9.52, 2638
25.23, 101650.94, 0.34,-0.48, 9.67, 2643
25.23, 101650.94, 0.19,-0.56, 9.62, 2648
25.23, 101652.92, 0.21,-0.56, 9.62, 2653
25.23, 101652.92, 0.25,-0.52, 9.62, 2658
25.23, 101652.92, 0.29,-0.56, 9.56, 2663
25.23, 101652.92, 0.17,-0.52, 9.58, 2668
25.23, 101652.92, 0.23,-0.56, 9.62, 2673
25.23, 101652.92, 0.25,-0.57, 9.66, 2678
25.23, 101652.92, 0.21,-0.57, 9.69, 2683
25.23, 101652.43, 0.23,-0.56, 9.56, 2688
25.23, 101652.43, 0.23,-0.56, 9.62, 2693
25.23, 101652.43, 0.27,-0.59, 9.66, 2698
25.23, 101652.43, 0.23,-0.57, 9.60, 2703
25.23, 101652.43, 0.23,-0.56, 9.62, 2708
25.23, 101652.43, 0.19,-0.56, 9.62, 2713
25.23, 101652.43, 0.29,-0.52, 9.58, 2718
25.23, 101652.38, 0.23,-0.54, 9.66, 2723
25.23, 101652.38, 0.21,-0.50, 9.71, 2728
25.23, 101652.38, 0.21,-0.56, 9.71, 2733
25.23, 101652.38, 0.25,-0.61, 9.64, 2738
25.23, 101652.38, 0.21,-0.42, 9.60, 2743
25.23, 101652.38, 0.21,-0.52, 9.73, 2748
25.23, 101652.38, 0.29,-0.57, 9.52, 2753
25.23, 101650.83, 0.21,-0.54, 9.56, 2758
25.23, 101650.83, 0.25,-0.56, 9.69, 2763
25.23, 101650.83, 0.15,-0.46, 9.27, 2768
25.23, 101650.83, 0.36,-0.56, 9.43, 2773
25.23, 101650.83, 0.21,-0.61, 9.81, 2778
25.23, 101650.83, 0.19,-0.50, 9.79, 2783
25.23, 101650.83, 0.23,-0.54, 9.64, 2788
25.23, 101649.84, 0.27,-0.57, 9.85, 2793
25.23, 101649.84, 0.17,-0.46, 9.50, 2798
25.23, 101649.84, 0.17,-0.48, 9.56, 2803
25.23, 101649.84, 0.25,-0.59, 9.71, 2808
25.23, 101649.84, 0.19,-0.67, 9.71, 2813
25.23, 101649.84, 0.23,-0.59, 9.62, 2818
25.23, 101649.84, 0.21,-0.63, 9.58, 2823
25.23, 101653.26, 0.19,-0.52, 9.52, 2828
25.23, 101653.26, 0.15,-0.48, 9.58, 2833
25.23, 101653.26, 0.19,-0.52, 9.62, 2838
25.23, 101653.26, 0.25,-0.56, 9.77, 2843
25.23, 101653.26, 0.25,-0.56, 9.50, 2848
25.23, 101653.26, 0.23,-0.56, 9.89, 2853
25.23, 101653.26, 0.21,-0.46, 9.67, 2858
25.23, 101655.77, 0.23,-0.48, 9.64, 2863
25.23, 101655.77, 0.19,-0.54, 9.64, 2868
25.23, 101655.77, 0.25,-0.59, 9.79, 2873
25.23, 101655.77, 0.21,-0.57, 9.60, 2881
25.23, 101655.77, 0.23,-0.57, 9.64, 2885
25.23, 101655.77, 0.25,-0.54, 9.67, 2890
25.23, 101655.77, 0.23,-0.56, 9.50, 2895
25.23, 101651.38, 0.21,-0.48, 9.62, 2900
25.23, 101651.38, 0.27,-0.56, 9.67, 2905
25.23, 101651.38, 0.25,-0.59, 9.66, 2910
25.23, 101651.38, 0.19,-0.61, 9.66, 2915
25.23, 101651.38, 0.21,-0.57, 9.60, 2920
25.23, 101651.38, 0.19,-0.61, 9.56, 2925
25.23, 101651.38, 0.23,-0.52, 9.66, 2930
25.23, 101649.02, 0.21,-0.54, 9.58, 2935
25.23, 101649.02, 0.21,-0.57, 9.73, 2940
25.23, 101649.02, 0.19,-0.57, 9.73, 2945
25.23, 101649.02, 0.23,-0.54, 9.87, 2950
25.23, 101649.02, 0.25,-0.54, 9.62, 2955
25.23, 101649.02, 0.27,-0.57, 9.73, 2960
25.23, 101649.02, 0.29,-0.56, 9.52, 2965
25.23, 101650.39, 0.23,-0.56, 9.56, 2970
25.23, 101650.39, 0.17,-0.59, 9.60, 2975
25.23, 101650.39, 0.21,-0.54, 9.69, 2980
25.23, 101650.39, 0.29,-0.56, 9.52, 2985
25.23, 101650.39, 0.29,-0.59, 9.56, 2990
25.23, 101650.39, 0.17,-0.52, 9.62, 2995
25.23, 101650.39, 0.13,-0.57, 9.50, 3000
25.23, 101652.85, 0.23,-0.40, 9.60, 3005
25.23, 101652.85, 0.13,-0.63, 9.73, 3010
25.23, 101652.85, 0.13,-0.59, 9.71, 3015
25.23, 101652.85, 0.13,-0.54, 9.75, 3020
25.23, 101652.85, 0.19,-0.52, 9.60, 3025
25.23, 101652.85, 0.23,-0.56, 9.69, 3030
25.23, 101652.85, 0.19,-0.54, 9.52, 3035
25.23, 101654.17, 0.15,-0.54, 9.60, 3040
25.23, 101654.17, 0.19,-0.65, 9.67, 3045
25.23, 101654.17, 0.23,-0.71, 9.73, 3050
25.23, 101654.17, 0.29,-0.61, 9.75, 3055
25.23, 101654.17, 0.21,-0.50, 9.50, 3060
25.23, 101654.17, 0.23,-0.48, 9.52, 3065
25.23, 101654.17, 0.27,-0.52, 9.67, 3070
25.23, 101653.02, 0.29,-0.48, 9.87, 3075
25.23, 101652.09, 0.29,-0.52, 9.79, 3080
25.23, 101652.09, 0.34,-0.50, 9.83, 3085
25.23, 101652.09, 0.33,-0.61, 9.71, 3090
25.23, 101652.09, 0.25,-0.48, 9.58, 3095
25.23, 101652.09, 0.21,-0.50, 9.56, 3100
25.23, 101652.09, 0.29,-0.59, 9.52, 3105
25.23, 101652.09, 0.23,-0.61, 9.67, 3110
25.23, 101652.20, 0.23,-0.61, 9.66, 3115
25.23, 101652.20, 0.17,-0.57, 9.64, 3120
25.23, 101652.20, 0.17,-0.59, 9.67, 3125
25.23, 101652.20, 0.17,-0.52, 9.60, 3130
25.23, 101652.20, 0.10,-0.48, 9.52, 3135
25.23, 101652.20, 0.13,-0.54, 9.67, 3140
25.23, 101652.20, 0.13,-0.59, 9.79, 3145
25.23, 101653.19, 0.08,-0.57, 9.79, 3150
25.23, 101653.19, 0.11,-0.56, 9.69, 3155
25.23, 101653.19, 0.19,-0.57, 9.67, 3160
25.23, 101653.19, 0.17,-0.57, 9.60, 3165
25.23, 101653.19, 0.25,-0.48, 9.62, 3170
25.23, 101653.19, 0.21,-0.50, 9.60, 3175
25.23, 101653.19, 0.29,-0.57, 9.69, 3180
25.23, 101656.16, 0.25,-0.56, 9.73, 3185
25.23, 101656.16, 0.25,-0.63, 9.85, 3190
25.23, 101656.16, 0.25,-0.57, 9.54, 3195
25.23, 101656.16, 0.29,-0.54, 9.56, 3200
25.23, 101656.16, 0.29,-0.61, 9.58, 3205
25.23, 101656.16, 0.36,-0.57, 9.48, 3210
25.23, 101656.16, 0.29,-0.61, 9.71, 3215
25.23, 101651.94, 0.33,-0.54, 9.69, 3220
25.23, 101651.94, 0.23,-0.59, 9.66, 3225
25.23, 101651.94, 0.25,-0.50, 9.52, 3230
25.23, 101651.94, 0.29,-0.46, 9.66, 3235
25.23, 101651.94, 0.25,-0.57, 9.56, 3240
25.23, 101651.94, 0.34,-0.57, 9.64, 3245
25.23, 101651.94, 0.27,-0.65, 9.67, 3250
25.23, 101655.00, 0.34,-0.57, 9.66, 3255
25.23, 101655.00, 0.31,-0.61, 9.69, 3260
25.23, 101655.00, 0.27,-0.57, 9.64, 3265
25.23, 101655.00, 0.23,-0.54, 9.64, 3270
25.23, 101655.00, 0.17,-0.54, 9.67, 3275
25.23, 101655.00, 0.17,-0.56, 9.56, 3280
25.23, 101655.00, 0.13,-0.52, 9.64, 3285
25.23, 101651.55, 0.21,-0.59, 9.62, 3290
25.23, 101651.55, 0.11,-0.61, 9.62, 3295
25.23, 101651.55, 0.19,-0.54, 9.56, 3300
25.23, 101651.55, 0.27,-0.52, 9.64, 3305
25.23, 101651.55, 0.15,-0.56, 9.56, 3310
25.23, 101651.55, 0.25,-0.59, 9.69, 3315
25.23, 101651.55, 0.23,-0.57, 9.50, 3320
25.23, 101655.39, 0.10,-0.61, 9.56, 3325
25.23, 101655.39, 0.25,-0.73, 9.67, 3330
25.23, 101655.39, 0.29,-0.63, 9.69, 3335
25.23, 101655.39, 0.19,-0.65, 9.60, 3340
25.23, 101655.39, 0.19,-0.56, 9.83, 3345
25.23, 101655.39, 0.25,-0.52, 9.60, 3350
25.23, 101655.39, 0.25,-0.46, 9.62, 3355
25.23, 101653.69, 0.36,-0.52, 9.58, 3360
25.23, 101653.69, 0.33,-0.59, 9.71, 3365
25.23, 101653.69, 0.25,-0.54, 9.64, 3370
25.23, 101653.69, 0.25,-0.57, 9.67, 3375
25.23, 101653.69, 0.27,-0.56, 9.54, 3383
25.23, 101653.69, 0.33,-0.50, 9.62, 3387
25.23, 101653.69, 0.33,-0.57, 9.67, 3392
25.23, 101653.91, 0.33,-0.50, 9.75, 3397
25.23, 101653.91, 0.27,-0.52, 9.62, 3402
25.23, 101653.91, 0.29,-0.52, 9.58, 3407
25.23, 101653.91, 0.21,-0.48, 9.64, 3412
25.23, 101653.91, 0.19,-0.46, 9.77, 3417
25.23, 101653.91, 0.25,-0.57, 9.62, 3422
25.23, 101653.91, 0.19,-0.57, 9.67, 3427
25.23, 101653.69, 0.15,-0.57, 9.66, 3432
25.23, 101653.69, 0.19,-0.54, 9.56, 3437
25.23, 101653.69, 0.15,-0.48, 9.71, 3442
25.23, 101653.69, 0.17,-0.57, 9.66, 3447
25.23, 101653.69, 0.17,-0.57, 9.69, 3452
25.23, 101653.69, 0.15,-0.52, 9.62, 3457
25.23, 101653.69, 0.17,-0.50, 9.67, 3462
25.23, 101652.70, 0.15,-0.52, 9.75, 3467
25.23, 101652.70, 0.19,-0.63, 9.67, 3472
25.23, 101652.70, 0.25,-0.56, 9.60, 3477
25.23, 101652.70, 0.19,-0.59, 9.58, 3482
25.23, 101652.70, 0.23,-0.59, 9.66, 3487
25.23, 101652.70, 0.31,-0.65, 9.69, 3492
25.23, 101652.70, 0.29,-0.63, 9.62, 3497
25.23, 101650.55, 0.21,-0.54, 9.56, 3502
25.23, 101650.55, 0.25,-0.50, 9.67, 3507
25.23, 101650.55, 0.25,-0.56, 9.66, 3512
25.23, 101650.55, 0.29,-0.52, 9.64, 3517
25.23, 101650.55, 0.23,-0.54, 9.66, 3522
25.23, 101650.55, 0.33,-0.59, 9.64, 3527
25.23, 101650.55, 0.31,-0.54, 9.56, 3532
25.23, 101651.86, 0.29,-0.57, 9.69, 3537
25.23, 101651.86, 0.17,-0.50, 9.62, 3542
25.23, 101651.86, 0.29,-0.52, 9.64, 3547
25.23, 101651.86, 0.25,-0.57, 9.58, 3552
25.23, 101651.86, 0.25,-0.56, 9.58, 3557
25.23, 101651.86, 0.23,-0.54, 9.56, 3562
25.23, 101651.86, 0.29,-0.48, 9.66, 3567
25.23, 101651.05, 0.21,-0.52, 9.60, 3572
25.23, 101651.05, 0.23,-0.59, 9.67, 3577
25.23, 101651.05, 0.27,-0.50, 9.64, 3582
25.23, 101651.05, 0.23,-0.59, 9.66, 3587
25.23, 101651.05, 0.25,-0.57, 9.60, 3592
25.23, 101651.05, 0.21,-0.56, 9.58, 3597
25.23, 101651.05, 0.19,-0.54, 9.62, 3602
25.23, 101651.05, 0.23,-0.54, 9.62, 3607
25.23, 101651.27, 0.21,-0.56, 9.64, 3612
25.23, 101651.27, 0.27,-0.57, 9.66, 3617
25.23, 101651.27, 0.23,-0.56, 9.66, 3622
25.23, 101651.27, 0.25,-0.59, 9.62, 3627
25.23, 101651.27, 0.25,-0.59, 9.60, 3632
25.23, 101651.27, 0.25,-0.57, 9.66, 3637
25.23, 101651.27, 0.21,-0.48, 9.67, 3642
25.23, 101652.27, 0.25,-0.52, 9.66, 3647
25.23, 101652.27, 0.23,-0.52, 9.66, 3652
25.23, 101652.27, 0.21,-0.61, 9.83, 3657
25.23, 101652.27, 0.23,-0.50, 9.50, 3662
25.23, 101652.27, 0.23,-0.50, 9.64, 3667
25.23, 101652.27, 0.23,-0.52, 9.69, 3672
25.23, 101652.27, 0.25,-0.57, 9.52, 3677
25.23, 101653.67, 0.27,-0.56, 9.48, 3682
25.23, 101653.67, 0.33,-0.52, 9.54, 3687
25.23, 101653.67, 0.29,-0.54, 9.62, 3692
25.23, 101653.67, 0.29,-0.54, 9.62, 3697
25.23, 101653.67, 0.15,-0.61, 9.69, 3702
25.23, 101653.67, 0.19,-0.61, 9.64, 3707
25.23, 101653.67, 0.17,-0.57, 9.67, 3712
25.23, 101652.09, 0.21,-0.57, 9.67, 3717
25.23, 101652.09, 0.21,-0.56, 9.66, 3722
25.23, 101652.09, 0.23,-0.54, 9.58, 3727
25.23, 101652.09, 0.23,-0.56, 9.60, 3732
25.23, 101652.09, 0.19,-0.50, 9.62, 3737
25.23, 101652.09, 0.17,-0.56, 9.60, 3742
25.23, 101652.09, 0.21,-0.54, 9.60, 3747
25.23, 101650.06, 0.19,-0.57, 9.60, 3752
25.23, 101650.06, 0.17,-0.56, 9.62, 3757
25.23, 101650.06, 0.17,-0.57, 9.64, 3762
25.23, 101650.06, 0.27,-0.50, 9.66, 3767
25.23, 101650.06, 0.25,-0.54, 9.79, 3772
25.23, 101650.06, 0.23,-0.52, 9.79, 3777
25.23, 101650.06, 0.27,-0.56, 9.58, 3782
25.23, 101652.85, 0.19,-0.50, 9.62, 3787
25.23, 101652.85, 0.23,-0.65, 9.64, 3792
25.23, 101652.85, 0.21,-0.57, 9.56, 3797
25.23, 101652.85, 0.29,-0.46, 9.67, 3802
25.23, 101652.85, 0.15,-0.54, 9.75, 3807
25.23, 101652.85, 0.23,-0.52, 9.71, 3812
25.23, 101652.85, 0.25,-0.44, 9.60, 3817
25.23, 101652.38, 0.29,-0.54, 9.60, 3822
25.23, 101652.38, 0.29,-0.56, 9.66, 3827
25.23, 101652.38, 0.31,-0.52, 9.71, 3832
25.23, 101652.38, 0.21,-0.54, 9.62, 3837
25.23, 101652.38, 0.19,-0.61, 9.67, 3842
25.23, 101652.38, 0.25,-0.54, 9.71, 3847
25.23, 101652.38, 0.29,-0.56, 9.64, 3852
25.23, 101653.02, 0.23,-0.59, 9.71, 3857
25.23, 101653.02, 0.27,-0.54, 9.60, 3862
25.23, 101653.02, 0.23,-0.57, 9.69, 3867
25.23, 101653.02, 0.21,-0.61, 9.62, 3872
25.23, 101653.02, 0.23,-0.56, 9.60, 3877
25.23, 101653.02, 0.29,-0.54, 9.58, 3885
25.23, 101653.02, 0.29,-0.56, 9.67, 3889
25.23, 101653.08, 0.23,-0.71, 9.66, 3894
25.23, 101653.08, 0.25,-0.33, 9.66, 3899
25.23, 101653.08, 0.25,-0.57, 9.50, 3904
25.23, 101653.08, 0.27,-0.52, 9.56, 3909
25.23, 101653.08, 0.23,-0.54, 9.62, 3914
25.23, 101653.08, 0.27,-0.52, 9.58, 3919
25.23, 101653.08, 0.19,-0.59, 9.60, 3924
25.23, 101650.83, 0.19,-0.56, 9.64, 3929
25.23, 101650.83, 0.29,-0.57, 9.75, 3934
25.23, 101650.83, 0.19,-0.56, 9.62, 3939
25.23, 101650.83, 0.25,-0.50, 9.60, 3944
25.23, 101650.83, 0.13,-0.56, 9.62, 3949
25.23, 101650.83, 0.21,-0.56, 9.64, 3954
25.23, 101650.83, 0.23,-0.56, 9.73, 3959
25.23, 101652.38, 0.27,-0.57, 9.73, 3964
25.23, 101652.38, 0.27,-0.54, 9.69, 3969
25.23, 101652.38, 0.19,-0.44, 9.60, 3974
25.23, 101652.38, 0.19,-0.56, 9.50, 3979
25.23, 101652.38, 0.17,-0.50, 9.64, 3984
25.23, 101652.38, 0.29,-0.59, 9.69, 3989
25.23, 101652.38, 0.29,-0.63, 9.60, 3994
25.23, 101652.59, 0.29,-0.63, 9.62, 3999
25.23, 101652.59, 0.25,-0.56, 9.56, 4004
25.23, 101652.59, 0.21,-0.56, 9.54, 4009
25.23, 101652.59, 0.15,-0.57, 9.48, 4014
25.23, 101652.59, 0.17,-0.56, 9.52, 4019
25.23, 101652.59, 0.25,-0.50, 9.67, 4024
25.23, 101652.59, 0.29,-0.57, 9.75, 4029
25.23, 101653.02, 0.25,-0.56, 9.60, 4034
25.23, 101653.02, 0.27,-0.54, 9.58, 4039
25.23, 101653.02, 0.29,-0.50, 9.60, 4044
25.23, 101653.02, 0.21,-0.42, 9.60, 4049
25.23, 101653.02, 0.27,-0.50, 9.46, 4054
25.23, 101653.02, 0.31,-0.56, 9.67, 4059
25.23, 101653.02, 0.33,-0.52, 9.66, 4064
25.23, 101652.03, 0.23,-0.42, 9.73, 4069
25.23, 101652.03, 0.25,-0.52, 9.62, 4074
25.23, 101652.03, 0.21,-0.56, 9.60, 4079
25.23, 101652.03, 0.27,-0.56, 9.67, 4084
25.23, 101652.03, 0.29,-0.48, 9.69, 4089
25.23, 101652.03, 0.23,-0.54, 9.69, 4094
25.23, 101652.03, 0.19,-0.50, 9.67, 4099
25.23, 101652.03, 0.21,-0.57, 9.66, 4104
25.23, 101654.50, 0.25,-0.54, 9.64, 4109
25.23, 101654.50, 0.27,-0.57, 9.67, 4114
25.23, 101654.50, 0.19,-0.57, 9.73, 4119
25.23, 101654.50, 0.19,-0.52, 9.54, 4124
25.23, 101654.50, 0.23,-0.56, 9.54, 4129
25.23, 101654.50, 0.27,-0.59, 9.66, 4134
25.23, 101654.50, 0.23,-0.54, 9.77, 4139
25.23, 101655.61, 0.23,-0.54, 9.71, 4144
25.23, 101655.61, 0.13,-0.56, 9.52, 4149
25.23, 101655.61, 0.15,-0.54, 9.67, 4154
25.23, 101655.61, 0.27,-0.52, 9.69, 4159
25.23, 101655.61, 0.23,-0.56, 9.73, 4164
25.23, 101655.61, 0.27,-0.52, 9.58, 4169
25.23, 101655.61, 0.25,-0.50, 9.64, 4174
25.23, 101652.25, 0.25,-0.50, 9.67, 4179
25.23, 101652.25, 0.23,-0.54, 9.66, 4184
25.23, 101652.25, 0.23,-0.56, 9.66, 4189
25.23, 101652.25, 0.15,-0.44, 9.67, 4194
25.23, 101652.25, 0.19,-0.52, 9.66, 4199
25.23, 101652.25, 0.29,-0.59, 9.58, 4204
25.23, 101652.25, 0.27,-0.52, 9.56, 4209
25.23, 101653.08, 0.25,-0.54, 9.60, 4214
25.23, 101653.08, 0.29,-0.56, 9.60, 4219
25.23, 101653.08, 0.21,-0.56, 9.67, 4224
25.23, 101653.08, 0.21,-0.50, 9.62, 4229
25.23, 101653.08, 0.27,-0.57, 9.71, 4234
25.23, 101653.08, 0.25,-0.63, 9.67, 4239
25.23, 101653.08, 0.23,-0.54, 9.71, 4244
25.23, 101655.16, 0.21,-0.63, 9.58, 4249
25.23, 101655.16, 0.25,-0.57, 9.67, 4254
25.23, 101655.16, 0.25,-0.48, 9.52, 4259
25.23, 101655.16, 0.21,-0.57, 9.67, 4264
25.23, 101655.16, 0.27,-0.63, 9.50, 4269
25.23, 101655.16, 0.17,-0.56, 9.67, 4274
25.23, 101655.16, 0.19,-0.61, 9.66, 4279
25.23, 101652.25, 0.17,-0.57, 9.64, 4284
25.23, 101652.25, 0.21,-0.61, 9.69, 4289
25.23, 101652.25, 0.17,-0.50, 9.62, 4294
25.23, 101652.25, 0.25,-0.56, 9.67, 4299
25.23, 101652.25, 0.23,-0.52, 9.62, 4304
25.23, 101652.25, 0.25,-0.52, 9.54, 4309
25.23, 101652.25, 0.23,-0.57, 9.64, 4314
25.23, 101652.92, 0.23,-0.56, 9.62, 4319
25.23, 101652.92, 0.19,-0.57, 9.64, 4324
25.23, 101652.92, 0.21,-0.57, 9.64, 4329
25.23, 101652.92, 0.29,-0.56, 9.66, 4334
25.23, 101652.92, 0.25,-0.63, 9.67, 4339
25.23, 101652.92, 0.19,-0.56, 9.62, 4344
25.23, 101652.92, 0.19,-0.56, 9.62, 4349
25.23, 101653.84, 0.21,-0.59, 9.60, 4354
25.23, 101653.84, 0.19,-0.54, 9.66, 4359
25.23, 101653.84, 0.21,-0.52, 9.66, 4364
25.23, 101653.84, 0.21,-0.59, 9.58, 4369
25.23, 101653.84, 0.21,-0.54, 9.33, 4374
25.23, 101653.84, 0.21,-0.56, 9.75, 4379
25.23, 101653.84, 0.17,-0.50, 9.69, 4386
25.23, 101654.56, 0.23,-0.61, 9.66, 4391
25.23, 101654.56, 0.34,-0.59, 9.62, 4396
25.23, 101654.56, 0.25,-0.56, 9.69, 4401
25.23, 101654.56, 0.25,-0.54, 9.71, 4406
25.23, 101654.56, 0.19,-0.61, 9.56, 4411
25.23, 101654.56, 0.15,-0.50, 9.60, 4416
25.23, 101654.56, 0.25,-0.54, 9.67, 4421
25.23, 101652.69, 0.27,-0.59, 9.60, 4426
25.23, 101652.69, 0.21,-0.56, 9.60, 4431
25.23, 101652.69, 0.19,-0.54, 9.71, 4436
25.23, 101652.69, 0.21,-0.52, 9.69, 4441
25.23, 101652.69, 0.21,-0.57, 9.71, 4446
25.23, 101652.69, 0.25,-0.61, 9.64, 4451
25.23, 101652.69, 0.21,-0.57, 9.60, 4456
25.23, 101652.75, 0.29,-0.56, 9.67, 4461
25.23, 101652.75, 0.19,-0.59, 9.67, 4466
25.23, 101652.75, 0.23,-0.59, 9.62, 4471
25.23, 101652.75, 0.27,-0.56, 9.81, 4476
25.23, 101652.75, 0.19,-0.56, 9.58, 4481
25.23, 101652.75, 0.23,-0.57, 9.77, 4486
25.23, 101652.75, 0.21,-0.59, 9.52, 4491
25.23, 101654.58, 0.29,-0.54, 9.60, 4496
25.23, 101654.58, 0.19,-0.57, 9.64, 4501
25.23, 101654.58, 0.23,-0.61, 9.69, 4506
25.23, 101654.58, 0.15,-0.59, 9.60, 4511
25.23, 101654.58, 0.23,-0.54, 9.58, 4516
25.23, 101654.58, 0.19,-0.54, 9.56, 4521
25.23, 101654.58, 0.23,-0.54, 9.64, 4526
25.23, 101654.12, 0.23,-0.50, 9.62, 4531
25.23, 101654.12, 0.29,-0.63, 9.62, 4536
25.23, 101654.12, 0.34,-0.57, 9.67, 4541
25.23, 101654.12, 0.29,-0.52, 9.71, 4546
25.23, 101654.12, 0.21,-0.52, 9.67, 4551
25.23, 101654.12, 0.25,-0.56, 9.62, 4556
25.23, 101654.12, 0.25,-0.54, 9.56, 4561
25.23, 101653.67, 0.23,-0.52, 9.56, 4566
25.23, 101653.67, 0.27,-0.50, 9.45, 4571
25.23, 101653.67, 0.31,-0.61, 9.52, 4576
25.23, 101653.67, 0.27,-0.54, 9.83, 4581
25.23, 101653.67, 0.25,-0.65, 9.71, 4586
25.23, 101653.67, 0.23,-0.54, 9.75, 4591
25.23, 101653.67, 0.23,-0.57, 9.64, 4596
25.23, 101653.67, 0.11,-0.56, 9.64, 4601
25.23, 101653.34, 0.15,-0.52, 9.50, 4606
25.23, 101653.34, 0.15,-0.52, 9.58, 4611
25.23, 101653.34, 0.17,-0.65, 9.79, 4616
25.23, 101653.34, 0.19,-0.61, 9.79, 4621
25.23, 101653.34, 0.15,-0.63, 9.58, 4626
25.23, 101653.34, 0.11,-0.48, 9.52, 4631
25.23, 101653.34, 0.17,-0.56, 9.56, 4636
25.23, 101654.72, 0.21,-0.46, 9.60, 4641
25.23, 101654.72, 0.21,-0.65, 9.73, 4646
25.23, 101654.72, 0.31,-0.61, 9.75, 4651
25.23, 101654.72, 0.23,-0.61, 9.69, 4656
25.23, 101654.72, 0.23,-0.56, 9.60, 4661
25.23, 101654.72, 0.23,-0.50, 9.58, 4666
25.23, 101654.72, 0.21,-0.57, 9.62, 4671
25.23, 101655.44, 0.21,-0.61, 9.62, 4676
25.23, 101655.44, 0.25,-0.63, 9.69, 4681
25.23, 101655.44, 0.25,-0.57, 9.71, 4686
25.23, 101655.44, 0.31,-0.59, 9.67, 4691
25.23, 101655.44, 0.29,-0.52, 9.62, 4696
25.23, 101655.44, 0.27,-0.52, 9.60, 4701
25.23, 101655.44, 0.27,-0.63, 9.60, 4706
25.23, 101655.28, 0.25,-0.54, 9.69, 4711
25.23, 101655.28, 0.21,-0.57, 9.77, 4716
25.23, 101655.28, 0.23,-0.56, 9.67, 4721
25.23, 101655.28, 0.29,-0.50, 9.54, 4726
25.23, 101655.28, 0.34,-0.56, 9.62, 4731
25.23, 101655.28, 0.25,-0.52, 9.75, 4736
25.23, 101655.28, 0.29,-0.50, 9.60, 4741
25.23, 101655.00, 0.31,-0.57, 9.62, 4746
25.23, 101655.00, 0.27,-0.63, 9.62, 4751
25.23, 101655.00, 0.25,-0.65, 9.73, 4756
25.23, 101655.00, 0.27,-0.52, 9.66, 4761
25.23, 101655.00, 0.27,-0.54, 9.56, 4766
25.23, 101655.00, 0.19,-0.57, 9.50, 4771
25.23, 101655.00, 0.21,-0.59, 9.69, 4776
25.23, 101653.86, 0.19,-0.54, 9.56, 4781
25.23, 101653.86, 0.17,-0.57, 9.73, 4786
25.23, 101653.86, 0.08,-0.52, 9.45, 4791
25.23, 101653.86, 0.11,-0.40, 9.37, 4796
25.23, 101653.86, 0.19,-0.48, 9.60, 4801
25.23, 101653.86, 0.27,-0.50, 9.56, 4806
25.23, 101653.86, 0.34,-0.44, 9.52, 4811
25.23, 101655.55, 0.56,-0.71, 10.08, 4816
25.23, 101655.55, 0.38,-0.63, 9.81, 4821
25.23, 101655.55, 0.04,-0.46, 9.33, 4826
25.23, 101655.55, 0.13,-0.52, 9.33, 4831
25.23, 101655.55, 0.33,-0.73, 9.41, 4836
25.23, 101655.55, 0.34,-0.59, 9.85, 4841
25.23, 101655.55, 0.19,-0.61, 9.98, 4846
25.23, 101652.19, 0.04,-0.56, 9.79, 4851
25.23, 101652.19, 0.19,-0.23, 9.60, 4856
25.23, 101652.19, 0.25,-0.23, 9.25, 4861
25.23, 101652.19, 0.40,-0.38, 10.00, 4866
25.23, 101652.19, 0.40,-0.57, 9.89, 4871
25.23, 101652.19, 0.38,-0.71, 9.67, 4876
25.23, 101652.19, 0.19,-0.46, 9.25, 4881
25.23, 101655.39, 0.36,-0.61, 9.22, 4889
25.23, 101655.39, 0.31,-0.61, 9.58, 4893
25.23, 101655.39, 0.11,-0.56, 9.71, 4898
25.23, 101655.39, 0.15,-0.61, 9.69, 4903
25.23, 101655.39, 0.15,-0.42, 9.67, 4908
25.23, 101655.39, 0.21,-0.54, 9.73, 4913
25.23, 101655.39, 0.23,-0.56, 9.90, 4918
25.23, 101655.94, 0.19,-0.63, 9.89, 4923
25.23, 101655.94, 0.15,-0.59, 9.69, 4928
25.23, 101655.94, 0.23,-0.50, 9.48, 4933
25.23, 101655.94, 0.17,-0.65, 9.29, 4938
25.23, 101655.94, 0.17,-0.63, 9.48, 4943
25.23, 101655.94, 0.21,-0.80, 9.69, 4948
25.23, 101655.94, 0.15,-0.73, 9.54, 4953
25.23, 101654.50, 0.25,-0.50, 9.56, 4958
25.23, 101654.50, 0.29,-0.40, 9.52, 4963
25.23, 101654.50, 0.33,-0.33, 9.60, 4968
25.23, 101654.50, 0.25,-0.56, 9.69, 4973
25.23, 101654.50, 0.23,-0.59, 9.96, 4978
25.23, 101654.50, 0.36,-0.52, 9.71, 4983
25.23, 101654.50, 0.34,-0.59, 9.64, 4988
25.23, 101654.89, 0.29,-0.67, 9.54, 4993
25.23, 101654.89, 0.29,-0.57, 9.66, 4998
25.23, 101654.89, 0.25,-0.63, 9.69, 5003
25.23, 101654.89, 0.34,-0.59, 9.58, 5008
25.23, 101654.89, 0.29,-0.57, 9.58, 5013
25.23, 101654.89, 0.23,-0.46, 9.60, 5018
25.23, 101654.89, 0.19,-0.50, 9.73, 5023
25.23, 101654.83, 0.17,-0.50, 9.64, 5028
25.23, 101654.83, 0.17,-0.56, 9.67, 5033
25.23, 101654.83, 0.17,-0.52, 9.64, 5038
25.23, 101654.83, 0.19,-0.54, 9.67, 5043
25.23, 101654.83, 0.23,-0.63, 9.64, 5048
25.23, 101654.83, 0.19,-0.63, 9.71, 5053
25.23, 101654.83, 0.21,-0.61, 9.48, 5058
25.23, 101652.58, 0.27,-0.52, 9.35, 5063
25.23, 101652.58, 0.25,-0.54, 9.66, 5068
25.23, 101652.58, 0.25,-0.57, 9.64, 5073
25.23, 101652.58, 0.25,-0.57, 9.98, 5078
25.23, 101652.58, 0.15,-0.52, 9.71, 5083
25.23, 101652.58, 0.19,-0.56, 9.67, 5088
25.23, 101652.58, 0.23,-0.59, 9.67, 5093
25.23, 101652.58, 0.21,-0.46, 9.54, 5098
25.23, 101655.39, 0.21,-0.54, 9.67, 5103
25.23, 101655.39, 0.31,-0.54, 9.64, 5108
25.23, 101655.39, 0.23,-0.54, 9.64, 5113
25.23, 101655.39, 0.15,-0.59, 9.62, 5118
25.23, 101655.39, 0.21,-0.56, 9.66, 5123
25.23, 101655.39, 0.25,-0.52, 9.67, 5128
25.23, 101655.39, 0.21,-0.50, 9.60, 5133
25.23, 101654.78, 0.23,-0.52, 9.66, 5138
25.23, 101654.78, 0.31,-0.44, 9.69, 5143
25.23, 101654.78, 0.17,-0.57, 9.66, 5148
25.23, 101654.78, 0.23,-0.56, 9.71, 5153
25.23, 101654.78, 0.19,-0.63, 9.69, 5158
25.23, 101654.78, 0.19,-0.59, 9.66, 5163
25.23, 101654.78, 0.27,-0.59, 9.87, 5168
25.23, 101652.19, 0.17,-0.56, 9.69, 5173
25.23, 101652.19, 0.21,-0.48, 9.73, 5178
25.23, 101652.19, 0.25,-0.52, 9.67, 5183
25.23, 101652.19, 0.19,-0.56, 9.58, 5188
25.23, 101652.19, 0.13,-0.52, 9.60, 5193
25.23, 101652.19, 0.27,-0.42, 9.66, 5198
25.23, 101652.19, 0.23,-0.54, 9.66, 5203
25.23, 101654.23, 0.27,-0.54, 9.62, 5208
25.23, 101654.23, 0.25,-0.56, 9.64, 5213
25.23, 101654.23, 0.27,-0.59, 9.64, 5218
25.23, 101654.23, 0.25,-0.52, 9.67, 5223
25.23, 101654.23, 0.29,-0.54, 9.66, 5228
25.23, 101654.23, 0.23,-0.48, 9.67, 5233
25.23, 101654.23, 0.29,-0.59, 9.64, 5238
25.23, 101655.22, 0.23,-0.57, 9.60, 5243
25.23, 101655.22, 0.19,-0.56, 9.62, 5248
25.23, 101655.22, 0.19,-0.54, 9.64, 5253
25.23, 101655.22, 0.21,-0.56, 9.64, 5258
25.23, 101655.22, 0.15,-0.57, 9.64, 5263
25.23, 101655.22, 0.21,-0.56, 9.62, 5268
25.23, 101655.22, 0.17,-0.54, 9.67, 5273
25.23, 101654.12, 0.21,-0.52, 9.64, 5278
25.23, 101654.12, 0.25,-0.52, 9.58, 5283
25.23, 101654.12, 0.17,-0.57, 9.56, 5288
25.23, 101654.12, 0.23,-0.67, 9.62, 5293
25.23, 101654.12, 0.21,-0.63, 9.67, 5298
25.23, 101654.12, 0.25,-0.57, 9.81, 5303
25.23, 101654.12, 0.23,-0.67, 9.79, 5308
25.23, 101655.28, 0.27,-0.63, 9.71, 5313
25.23, 101655.28, 0.23,-0.57, 9.60, 5318
25.23, 101655.28, 0.23,-0.50, 9.62, 5323
25.23, 101655.28, 0.25,-0.50, 9.64, 5328
25.23, 101655.28, 0.25,-0.52, 9.73, 5333
25.23, 101655.28, 0.27,-0.52, 9.66, 5338
25.23, 101655.28, 0.23,-0.48, 9.66, 5343
25.23, 101653.57, 0.29,-0.52, 9.56, 5348
25.23, 101653.57, 0.25,-0.46, 9.60, 5353
25.23, 101653.57, 0.23,-0.54, 9.64, 5358
25.23, 101653.57, 0.25,-0.48, 9.64, 5363
25.23, 101653.57, 0.25,-0.57, 9.69, 5368
25.23, 101653.57, 0.23,-0.57, 9.67, 5373
25.23, 101653.57, 0.23,-0.54, 9.67, 5378
25.23, 101651.37, 0.21,-0.52, 9.64, 5383
25.23, 101651.37, 0.19,-0.54, 9.62, 5391
25.23, 101651.37, 0.23,-0.52, 9.52, 5395
25.23, 101651.37, 0.23,-0.56, 9.79, 5400
25.23, 101651.37, 0.23,-0.56, 9.60, 5405
25.23, 101651.37, 0.23,-0.56, 9.62, 5410
25.23, 101651.37, 0.17,-0.63, 9.71, 5415
25.23, 101650.59, 0.21,-0.57, 9.71, 5420
25.23, 101650.59, 0.23,-0.57, 9.56, 5425
25.23, 101650.59, 0.27,-0.50, 9.60, 5430
25.23, 101650.59, 0.31,-0.59, 9.64, 5435
25.23, 101650.59, 0.27,-0.57, 9.60, 5440
25.23, 101650.59, 0.29,-0.57, 9.73, 5445
25.23, 101650.59, 0.27,-0.56, 9.62, 5450
25.23, 101652.41, 0.31,-0.52, 9.66, 5455
25.23, 101652.41, 0.27,-0.52, 9.64, 5460
25.23, 101652.41, 0.21,-0.54, 9.62, 5465
25.23, 101652.41, 0.33,-0.59, 9.67, 5470
25.23, 101652.41, 0.29,-0.57, 9.73, 5475
25.23, 101652.41, 0.27,-0.54, 9.66, 5480
25.23, 101652.41, 0.17,-0.59, 9.64, 5485
25.23, 101651.31, 0.21,-0.59, 9.62, 5490
25.23, 101651.31, 0.19,-0.52, 9.60, 5495
25.23, 101651.31, 0.19,-0.61, 9.60, 5500
25.23, 101651.31, 0.31,-0.57, 9.87, 5505
25.23, 101651.31, 0.27,-0.56, 9.67, 5510
25.23, 101651.31, 0.23,-0.56, 9.56, 5515
25.23, 101651.31, 0.27,-0.54, 9.69, 5520
25.23, 101652.14, 0.25,-0.61, 9.69, 5525
25.23, 101652.14, 0.21,-0.56, 9.75, 5530
25.23, 101652.14, 0.21,-0.57, 9.67, 5535
25.23, 101652.14, 0.29,-0.50, 9.56, 5540
25.23, 101652.14, 0.31,-0.63, 9.64, 5545
25.23, 101652.14, 0.23,-0.57, 9.60, 5550
25.23, 101652.14, 0.31,-0.59, 9.73, 5555
25.23, 101652.47, 0.29,-0.57, 9.60, 5560
25.23, 101652.47, 0.25,-0.57, 9.60, 5565
25.23, 101652.47, 0.23,-0.56, 9.62, 5570
25.23, 101652.47, 0.29,-0.52, 9.75, 5575
25.23, 101652.47, 0.31,-0.46, 9.67, 5580
25.23, 101652.47, 0.25,-0.56, 9.73, 5585
25.23, 101652.47, 0.27,-0.59, 9.71, 5590
25.23, 101652.47, 0.19,-0.52, 9.66, 5595
25.23, 101651.97, 0.21,-0.54, 9.64, 5600
25.23, 101651.97, 0.21,-0.56, 9.60, 5605
25.23, 101651.97, 0.19,-0.54, 9.58, 5610
25.23, 101651.97, 0.19,-0.63, 9.54, 5615
25.23, 101651.97, 0.21,-0.48, 9.71, 5620
25.23, 101651.97, 0.21,-0.56, 9.66, 5625
25.23, 101651.97, 0.19,-0.57, 9.48, 5630
25.23, 101651.59, 0.17,-0.56, 9.43, 5635
25.23, 101651.59, 0.25,-0.57, 9.52, 5640
25.23, 101651.59, 0.23,-0.67, 9.67, 5645
25.23, 101651.59, 0.29,-0.56, 9.62, 5650
25.23, 101651.59, 0.29,-0.57, 9.66, 5655
25.23, 101651.59, 0.31,-0.65, 9.67, 5660
25.23, 101651.59, 0.27,-0.52, 9.66, 5665
25.23, 101651.15, 0.25,-0.54, 9.66, 5670
25.23, 101651.15, 0.29,-0.59, 9.66, 5675
25.23, 101651.15, 0.34,-0.61, 9.66, 5680
25.23, 101651.15, 0.25,-0.57, 9.66, 5685
25.23, 101651.15, 0.25,-0.56, 9.64, 5690
25.23, 101651.15, 0.27,-0.54, 9.58, 5695
25.23, 101651.15, 0.23,-0.52, 9.56, 5700
25.23, 101650.81, 0.25,-0.52, 9.66, 5705
25.23, 101650.81, 0.23,-0.63, 9.62, 5710
25.23, 101650.81, 0.25,-0.63, 9.60, 5715
25.23, 101650.81, 0.27,-0.56, 9.56, 5720
25.23, 101650.81, 0.17,-0.57, 9.64, 5725
25.23, 101650.81, 0.19,-0.56, 9.66, 5730
25.23, 101650.81, 0.21,-0.56, 9.66, 5735
25.23, 101650.16, 0.31,-0.54, 9.67, 5740
25.23, 101650.16, 0.27,-0.46, 9.54, 5745
25.23, 101650.16, 0.27,-0.59, 9.79, 5750
25.23, 101650.16, 0.25,-0.57, 9.58, 5755
25.23, 101650.16, 0.29,-0.57, 9.54, 5760
25.23, 101650.16, 0.29,-0.56, 9.71, 5765
25.23, 101650.16, 0.21,-0.50, 9.66, 5770
25.23, 101649.88, 0.25,-0.56, 9.66, 5775
25.23, 101649.88, 0.25,-0.57, 9.64, 5780
25.23, 101649.88, 0.21,-0.56, 9.56, 5785
25.23, 101649.88, 0.17,-0.57, 9.66, 5790
25.23, 101649.88, 0.15,-0.56, 9.67, 5795
25.23, 101649.88, 0.19,-0.54, 9.67, 5800
25.23, 101649.88, 0.15,-0.46, 9.64, 5805
25.23, 101651.37, 0.11,-0.52, 9.69, 5810
25.23, 101651.37, 0.10,-0.54, 9.64, 5815
25.23, 101651.37, 0.17,-0.56, 9.67, 5820
25.23, 101651.37, 0.15,-0.56, 9.66, 5825
25.23, 101651.37, 0.19,-0.54, 9.71, 5830
25.23, 101651.37, 0.19,-0.59, 9.71, 5835
25.23, 101651.37, 0.21,-0.56, 9.62, 5840
25.23, 101650.81, 0.31,-0.59, 9.60, 5845
25.23, 101650.81, 0.29,-0.65, 9.64, 5850
25.23, 101650.81, 0.33,-0.54, 9.66, 5855
25.23, 101650.81, 0.29,-0.65, 9.67, 5860
25.23, 101650.81, 0.34,-0.65, 9.75, 5865
25.23, 101650.81, 0.29,-0.56, 9.98, 5870
25.23, 101650.81, 0.29,-0.56, 9.73, 5875
25.23, 101651.81, 0.25,-0.54, 9.77, 5880
25.23, 101651.81, 0.33,-0.54, 9.50, 5885
25.23, 101651.81, 0.29,-0.57, 9.48, 5893
25.23, 101651.81, 0.33,-0.54, 9.58, 5897
25.23, 101651.81, 0.29,-0.54, 9.64, 5902
25.23, 101651.81, 0.31,-0.54, 9.66, 5907
25.23, 101651.81, 0.27,-0.56, 9.62, 5912
25.23, 101651.81, 0.29,-0.61, 9.66, 5917
25.23, 101651.81, 0.15,-0.57, 9.56, 5922
25.23, 101651.81, 0.19,-0.57, 9.66, 5927
25.23, 101651.81, 0.13,-0.57, 9.67, 5932
25.23, 101651.81, 0.10,-0.57, 9.69, 5937
25.23, 101651.81, 0.10,-0.61, 9.62, 5942
25.23, 101651.81, 0.10,-0.63, 9.58, 5947
25.23, 101650.59, 0.11,-0.56, 9.56, 5952
25.23, 101650.59, 0.17,-0.52, 9.67, 5957
25.23, 101650.59, 0.19,-0.50, 9.41, 5962
25.23, 101650.59, 0.19,-0.67, 9.46, 5967
25.23, 101650.59, 0.17,-0.61, 9.48, 5972
25.23, 101650.59, 0.21,-0.56, 9.69, 5977
25.23, 101650.59, 0.23,-0.59, 9.60, 5982
25.23, 101649.17, 0.33,-0.57, 9.66, 5987
25.23, 101649.17, 0.19,-0.57, 9.62, 5992
25.23, 101649.17, 0.23,-0.48, 9.60, 5997
25.23, 101649.17, 0.25,-0.57, 9.67, 6002
25.23, 101649.17, 0.33,-0.57, 9.66, 6007
25.23, 101649.17, 0.21,-0.61, 9.56, 6012
25.23, 101649.17, 0.27,-0.54, 9.58, 6017
25.23, 101650.16, 0.29,-0.59, 9.69, 6022
25.23, 101650.16, 0.33,-0.56, 9.71, 6027
25.23, 101650.16, 0.27,-0.52, 9.67, 6032
25.23, 101650.16, 0.23,-0.54, 9.60, 6037
25.23, 101650.16, 0.17,-0.57, 9.66, 6042
25.23, 101650.16, 0.21,-0.54, 9.67, 6047
25.23, 101650.16, 0.23,-0.52, 9.62, 6052
25.23, 101650.81, 0.21,-0.56, 9.64, 6057
25.23, 101650.81, 0.21,-0.61, 9.75, 6062
25.23, 101650.81, 0.15,-0.61, 9.69, 6067
25.23, 101650.81, 0.25,-0.57, 9.66, 6072
25.23, 101650.81, 0.23,-0.57, 9.75, 6077
25.23, 101650.81, 0.25,-0.50, 9.64, 6082
25.23, 101650.81, 0.19,-0.48, 9.69, 6087
25.23, 101651.15, 0.27,-0.48, 9.87, 6092
25.23, 101651.15, 0.15,-0.65, 9.62, 6097
25.23, 101651.15, 0.27,-0.61, 9.66, 6102
25.23, 101651.15, 0.25,-0.57, 9.64, 6107
25.23, 101651.15, 0.27,-0.50, 9.60, 6112
25.23, 101651.15, 0.25,-0.56, 9.54, 6117
25.23, 101651.15, 0.31,-0.52, 9.58, 6122
25.23, 101651.15, 0.21,-0.54, 9.56, 6127
25.23, 101654.44, 0.27,-0.52, 9.64, 6132
25.23, 101654.44, 0.27,-0.52, 9.67, 6137
25.23, 101654.44, 0.27,-0.48, 9.60, 6142
25.23, 101654.44, 0.21,-0.56, 9.62, 6147
25.23, 101654.44, 0.23,-0.54, 9.54, 6152
25.23, 101654.44, 0.15,-0.56, 9.60, 6157
25.23, 101654.44, 0.19,-0.52, 9.62, 6162
25.23, 101653.80, 0.21,-0.57, 9.66, 6167
25.23, 101653.80, 0.19,-0.56, 9.64, 6172
25.23, 101653.80, 0.19,-0.57, 9.66, 6177
25.23, 101653.80, 0.29,-0.52, 9.69, 6182
25.23, 101653.80, 0.21,-0.56, 9.56, 6187
25.23, 101653.80, 0.21,-0.54, 9.54, 6192
25.23, 101653.80, 0.23,-0.50, 9.69, 6197
25.23, 101653.02, 0.29,-0.56, 9.50, 6202
25.23, 101653.02, 0.19,-0.52, 9.50, 6207
25.23, 101653.02, 0.13,-0.54, 9.54, 6212
25.23, 101653.02, 0.25,-0.54, 9.64, 6217
25.23, 101653.02, 0.17,-0.54, 9.62, 6222
25.23, 101653.02, 0.19,-0.57, 9.67, 6227
25.23, 101653.02, 0.23,-0.54, 9.69, 6232
25.23, 101651.64, 0.25,-0.56, 9.60, 6237
25.23, 101651.64, 0.17,-0.57, 9.66, 6242
25.23, 101651.64, 0.21,-0.56, 9.62, 6247
25.23, 101651.64, 0.17,-0.57, 9.62, 6252
25.23, 101651.64, 0.25,-0.57, 9.64, 6257
25.23, 101651.64, 0.19,-0.52, 9.60, 6262
25.23, 101651.64, 0.23,-0.59, 9.62, 6267
25.23, 101651.30, 0.21,-0.57, 9.64, 6272
25.23, 101651.30, 0.23,-0.54, 9.66, 6277
25.23, 101651.30, 0.19,-0.52, 9.66, 6282
25.23, 101651.30, 0.17,-0.56, 9.69, 6287
25.23, 101651.30, 0.23,-0.56, 9.62, 6292
25.23, 101651.30, 0.17,-0.54, 9.71, 6297
25.23, 101651.30, 0.27,-0.50, 9.60, 6302
25.23, 101649.17, 0.23,-0.54, 9.71, 6307
25.23, 101649.17, 0.21,-0.56, 9.67, 6312
25.23, 101649.17, 0.25,-0.54, 9.62, 6317
25.23, 101649.17, 0.19,-0.57, 9.69, 6322
25.23, 101649.17, 0.21,-0.54, 9.66, 6327
25.23, 101649.17, 0.27,-0.59, 9.62, 6332
25.23, 101649.17, 0.19,-0.54, 9.56, 6337
25.23, 101649.72, 0.23,-0.59, 9.60, 6342
25.23, 101649.72, 0.23,-0.56, 9.64, 6347
25.23, 101649.72, 0.21,-0.57, 9.71, 6352
25.23, 101649.72, 0.23,-0.56, 9.67, 6357
25.23, 101649.72, 0.15,-0.59, 9.69, 6362
25.23, 101649.72, 0.21,-0.57, 9.67, 6367
25.23, 101649.72, 0.23,-0.52, 9.60, 6372
25.23, 101651.05, 0.19,-0.56, 9.69, 6377
25.23, 101651.05, 0.15,-0.54, 9.66, 6382
25.23, 101651.05, 0.17,-0.63, 9.64, 6387
25.23, 101651.05, 0.21,-0.57, 9.67, 6399
25.23, 101651.05, 0.25,-0.56, 9.67, 6403
25.23, 101651.05, 0.29,-0.56, 9.69, 6408
25.23, 101649.50, 0.25,-0.59, 9.64, 6413
25.23, 101649.50, 0.19,-0.61, 9.62, 6418
25.23, 101649.50, 0.23,-0.54, 9.64, 6423
25.23, 101649.50, 0.23,-0.48, 9.67, 6428
25.23, 101649.50, 0.23,-0.52, 9.58, 6433
25.23, 101649.50, 0.21,-0.52, 9.58, 6438
25.23, 101649.50, 0.19,-0.50, 9.56, 6443
25.23, 101649.66, 0.23,-0.54, 9.58, 6448
25.23, 101649.66, 0.23,-0.52, 9.56, 6453
25.23, 101649.66, 0.21,-0.54, 9.64, 6458
25.23, 101649.66, 0.23,-0.57, 9.71, 6463
25.23, 101649.66, 0.15,-0.54, 9.69, 6468
25.23, 101649.66, 0.19,-0.56, 9.73, 6473
25.23, 101649.66, 0.21,-0.50, 9.64, 6478
25.23, 101650.88, 0.29,-0.54, 9.83, 6483
25.23, 101650.88, 0.23,-0.56, 9.54, 6488
25.23, 101650.88, 0.27,-0.57, 9.54, 6493
25.23, 101650.88, 0.23,-0.57, 9.67, 6498
25.23, 101650.88, 0.21,-0.54, 9.58, 6503
25.23, 101650.88, 0.27,-0.57, 9.62, 6508
25.23, 101650.88, 0.19,-0.61, 9.66, 6513
25.23, 101650.00, 0.23,-0.59, 9.66, 6518
25.23, 101650.00, 0.21,-0.50, 9.67, 6523
25.23, 101650.00, 0.23,-0.50, 9.66, 6528
25.23, 101650.00, 0.27,-0.46, 9.60, 6533
25.23, 101650.00, 0.15,-0.46, 9.62, 6538
25.23, 101650.00, 0.27,-0.54, 9.58, 6543
25.23, 101650.00, 0.19,-0.54, 9.64, 6548
25.23, 101650.00, 0.27,-0.54, 9.67, 6553
25.23, 101650.49, 0.23,-0.54, 9.62, 6558
25.23, 101650.49, 0.29,-0.61, 9.62, 6563
25.23, 101650.49, 0.21,-0.59, 9.69, 6568
25.23, 101650.49, 0.21,-0.56, 9.73, 6573
25.23, 101650.49, 0.27,-0.54, 9.66, 6578
25.23, 101650.49, 0.17,-0.56, 9.69, 6583
25.23, 101650.49, 0.21,-0.59, 9.77, 6588
25.23, 101651.38, 0.19,-0.54, 9.77, 6593
25.23, 101651.38, 0.29,-0.63, 9.58, 6598
25.23, 101651.38, 0.29,-0.54, 9.43, 6603
25.23, 101651.38, 0.17,-0.54, 9.46, 6608
25.23, 101651.38, 0.25,-0.50, 9.54, 6613
25.23, 101651.38, 0.27,-0.56, 9.62, 6618
25.23, 101651.38, 0.27,-0.61, 9.52, 6623
25.23, 101654.11, 0.23,-0.59, 9.60, 6628
25.23, 101654.11, 0.15,-0.50, 9.73, 6633
25.23, 101654.11, 0.15,-0.54, 9.62, 6638
25.23, 101654.11, 0.23,-0.56, 9.62, 6643
25.23, 101654.11, 0.25,-0.56, 9.56, 6648
25.23, 101654.11, 0.27,-0.52, 9.67, 6653
25.23, 101654.11, 0.25,-0.54, 9.67, 6658
25.23, 101650.00, 0.21,-0.63, 9.66, 6663
25.23, 101650.00, 0.17,-0.59, 9.62, 6668
25.23, 101650.00, 0.17,-0.52, 9.64, 6673
25.23, 101650.00, 0.19,-0.57, 9.64, 6678
25.23, 101650.00, 0.23,-0.56, 9.67, 6683
25.23, 101650.00, 0.21,-0.57, 9.58, 6688
25.23, 101650.00, 0.23,-0.59, 9.54, 6693
25.23, 101650.22, 0.25,-0.50, 9.67, 6698
25.23, 101650.22, 0.31,-0.61, 9.87, 6703
25.23, 101650.22, 0.31,-0.56, 9.60, 6708
25.23, 101650.22, 0.25,-0.61, 9.64, 6713
25.23, 101650.22, 0.29,-0.59, 9.67, 6718
25.23, 101650.22, 0.29,-0.57, 9.52, 6723
25.23, 101650.22, 0.19,-0.48, 9.66, 6728
25.23, 101650.64, 0.25,-0.50, 9.69, 6733
25.23, 101650.64, 0.19,-0.59, 9.71, 6738
25.23, 101650.64, 0.21,-0.54, 9.66, 6743
25.23, 101650.64, 0.23,-0.52, 9.64, 6748
25.23, 101650.64, 0.21,-0.56, 9.69, 6753
25.23, 101650.64, 0.27,-0.52, 9.69, 6758
25.23, 101650.64, 0.27,-0.52, 9.64, 6763
25.23, 101651.05, 0.21,-0.56, 9.71, 6768
25.23, 101651.05, 0.17,-0.56, 9.64, 6773
25.23, 101651.05, 0.21,-0.57, 9.64, 6778
25.23, 101651.05, 0.21,-0.56, 9.60, 6783
25.23, 101651.05, 0.29,-0.54, 9.66, 6788
25.23, 101651.05, 0.25,-0.52, 9.66, 6793
25.23, 101651.05, 0.25,-0.56, 9.64, 6798
25.23, 101650.81, 0.19,-0.54, 9.64, 6803
25.23, 101650.81, 0.19,-0.54, 9.71, 6808
25.23, 101650.81, 0.21,-0.56, 9.58, 6813
25.23, 101650.81, 0.19,-0.54, 9.67, 6818
25.23, 101650.81, 0.17,-0.50, 9.69, 6823
25.23, 101650.81, 0.31,-0.56, 9.73, 6828
25.23, 101650.81, 0.29,-0.57, 9.69, 6833
25.23, 101650.16, 0.23,-0.59, 9.69, 6838
25.23, 101650.16, 0.23,-0.57, 9.83, 6843
25.23, 101650.16, 0.31,-0.56, 9.62, 6848
25.23, 101650.16, 0.23,-0.59, 9.67, 6853
25.23, 101650.16, 0.25,-0.50, 9.75, 6858
25.23, 101650.16, 0.21,-0.52, 9.69, 6863
25.23, 101650.16, 0.27,-0.63, 9.66, 6868
25.23, 101652.20, 0.23,-0.54, 9.50, 6873
25.23, 101652.20, 0.19,-0.52, 9.62, 6878
25.23, 101652.20, 0.23,-0.59, 9.66, 6883
25.23, 101652.20, 0.23,-0.61, 9.66, 6888
25.23, 101652.20, 0.25,-0.57, 9.62, 6893
25.23, 101652.20, 0.25,-0.56, 9.69, 6900
25.23, 101652.20, 0.25,-0.44, 9.67, 6905
25.23, 101650.32, 0.25,-0.52, 9.71, 6910
25.23, 101650.32, 0.13,-0.61, 9.56, 6915
25.23, 101650.32, 0.13,-0.57, 9.71, 6920
25.23, 101650.32, 0.25,-0.46, 9.62, 6925
25.23, 101650.32, 0.19,-0.54, 9.73, 6930
25.23, 101650.32, 0.23,-0.54, 9.77, 6935
25.23, 101650.32, 0.17,-0.56, 9.64, 6940
25.23, 101649.44, 0.25,-0.57, 9.64, 6945
25.23, 101649.44, 0.13,-0.52, 9.60, 6950
25.23, 101649.44, 0.21,-0.63, 9.67, 6955
25.23, 101649.44, 0.17,-0.57, 9.69, 6960
25.23, 101649.44, 0.25,-0.54, 9.67, 6965
25.23, 101649.44, 0.27,-0.50, 9.66, 6970
25.23, 101649.44, 0.27,-0.56, 9.66, 6975
25.23, 101651.64, 0.29,-0.50, 9.66, 6980
25.23, 101651.64, 0.23,-0.52, 9.66, 6985
25.23, 101651.64, 0.21,-0.56, 9.69, 6990
25.23, 101651.64, 0.31,-0.56, 9.62, 6995
25.23, 101651.64, 0.23,-0.54, 9.56, 7000
25.23, 101651.64, 0.23,-0.54, 9.60, 7005
25.23, 101651.64, 0.27,-0.56, 9.64, 7010
25.23, 101649.94, 0.23,-0.54, 9.62, 7015
25.23, 101649.94, 0.21,-0.56, 9.60, 7020
25.23, 101649.94, 0.23,-0.54, 9.66, 7025
25.23, 101649.94, 0.25,-0.54, 9.56, 7030
25.23, 101649.94, 0.25,-0.56, 9.67, 7035
25.23, 101649.94, 0.21,-0.63, 9.58, 7040
25.23, 101649.94, 0.19,-0.61, 9.54, 7045
25.23, 101649.94, 0.19,-0.54, 9.39, 7050
25.23, 101650.55, 0.23,-0.54, 9.48, 7055
25.23, 101650.55, 0.19,-0.59, 9.46, 7060
25.23, 101650.55, 0.21,-0.57, 9.52, 7065
25.23, 101650.55, 0.23,-0.61, 9.66, 7070
25.23, 101650.55, 0.29,-0.48, 9.54, 7075
25.23, 101650.55, 0.23,-0.57, 9.64, 7080
25.23, 101650.55, 0.21,-0.56, 9.60, 7085
25.23, 101650.97, 0.31,-0.63, 9.67, 7090
25.23, 101650.97, 0.25,-0.57, 9.69, 7095
25.23, 101650.97, 0.23,-0.54, 9.66, 7100
25.23, 101650.97, 0.23,-0.57, 9.64, 7105
25.23, 101650.97, 0.25,-0.56, 9.66, 7110
25.23, 101650.97, 0.21,-0.54, 9.66, 7115
25.23, 101650.97, 0.25,-0.56, 9.66, 7120
25.23, 101647.02, 0.19,-0.61, 9.66, 7125
25.23, 101647.02, 0.25,-0.56, 9.64, 7130
25.23, 101647.02, 0.27,-0.52, 9.62, 7135
25.23, 101647.02, 0.27,-0.54, 9.64, 7140
25.23, 101647.02, 0.23,-0.48, 9.73, 7145
25.23, 101647.02, 0.21,-0.54, 9.64, 7150
25.23, 101647.02, 0.29,-0.57, 9.66, 7155
25.23, 101651.30, 0.25,-0.59, 9.62, 7160
25.23, 101651.30, 0.29,-0.56, 9.66, 7165
25.23, 101651.30, 0.19,-0.52, 9.64, 7170
25.23, 101651.30, 0.21,-0.56, 9.64, 7175
25.23, 101651.30, 0.23,-0.59, 9.64, 7180
25.23, 101651.30, 0.21,-0.59, 9.52, 7185
25.23, 101651.30, 0.25,-0.65, 9.60, 7190
25.23, 101648.89, 0.25,-0.65, 9.64, 7195
25.23, 101648.89, 0.21,-0.54, 9.58, 7200
25.23, 101648.89, 0.19,-0.46, 9.58, 7205
25.23, 101648.89, 0.23,-0.57, 9.62, 7210
25.23, 101648.89, 0.17,-0.54, 9.67, 7215
25.23, 101648.89, 0.21,-0.52, 9.66, 7220
25.23, 101648.89, 0.21,-0.57, 9.60, 7225
25.23, 101651.05, 0.25,-0.50, 9.66, 7230
25.23, 101651.05, 0.27,-0.54, 9.60, 7235
25.23, 101651.05, 0.25,-0.56, 9.62, 7240
25.23, 101651.05, 0.21,-0.59, 9.60, 7245
25.23, 101651.05, 0.25,-0.57, 9.69, 7250
25.23, 101651.05, 0.27,-0.56, 9.66, 7255
25.23, 101651.05, 0.27,-0.54, 9.67, 7260
25.23, 101649.55, 0.23,-0.52, 9.62, 7265
25.23, 101649.55, 0.23,-0.59, 9.54, 7270
25.23, 101649.55, 0.25,-0.57, 9.75, 7275
25.23, 101649.55, 0.23,-0.52, 9.56, 7280
25.23, 101649.55, 0.17,-0.48, 9.71, 7285
25.23, 101649.55, 0.21,-0.48, 9.66, 7290
25.23, 101649.55, 0.25,-0.48, 9.81, 7295
25.23, 101649.16, 0.29,-0.52, 9.77, 7300
25.23, 101649.16, 0.23,-0.54, 9.67, 7305
25.23, 101649.16, 0.33,-0.54, 9.66, 7310
25.23, 101649.16, 0.19,-0.54, 9.67, 7315
25.23, 101649.16, 0.29,-0.63, 9.66, 7320
25.23, 101649.16, 0.21,-0.57, 9.62, 7325
25.23, 101649.16, 0.23,-0.54, 9.64, 7330
25.23, 101650.05, 0.29,-0.52, 9.64, 7335
25.23, 101650.05, 0.21,-0.50, 9.60, 7340
25.23, 101650.05, 0.27,-0.54, 9.64, 7345
25.23, 101650.05, 0.19,-0.56, 9.66, 7350
25.23, 101650.05, 0.25,-0.56, 9.56, 7355
25.23, 101650.05, 0.23,-0.56, 9.62, 7360
25.23, 101650.05, 0.31,-0.54, 9.69, 7365
25.23, 101650.14, 0.23,-0.57, 9.67, 7370
25.23, 101650.14, 0.25,-0.56, 9.69, 7375
25.23, 101650.14, 0.23,-0.52, 9.67, 7380
25.23, 101650.14, 0.23,-0.54, 9.69, 7385
25.23, 101650.14, 0.29,-0.54, 9.71, 7390
25.23, 101650.14, 0.19,-0.56, 9.50, 7395
25.23, 101650.14, 0.29,-0.52, 9.67, 7403
25.23, 101649.23, 0.21,-0.57, 9.62, 7407
25.23, 101649.23, 0.23,-0.56, 9.69, 7412
25.23, 101649.23, 0.19,-0.52, 9.67, 7417
25.23, 101649.23, 0.23,-0.56, 9.64, 7422
25.23, 101649.23, 0.19,-0.44, 9.56, 7427
25.23, 101649.23, 0.29,-0.56, 9.66, 7432
25.23, 101649.23, 0.21,-0.52, 9.64, 7437
25.23, 101651.20, 0.29,-0.52, 9.54, 7442
25.23, 101651.20, 0.19,-0.52, 9.69, 7447
25.23, 101651.20, 0.25,-0.57, 9.58, 7452
25.23, 101651.20, 0.21,-0.54, 9.67, 7457
25.23, 101651.20, 0.27,-0.59, 9.71, 7462
25.23, 101651.20, 0.23,-0.52, 9.73, 7467
25.23, 101651.20, 0.19,-0.52, 9.67, 7472
25.23, 101653.28, 0.25,-0.50, 9.69, 7477
25.23, 101653.28, 0.21,-0.50, 9.64, 7482
25.23, 101653.28, 0.15,-0.54, 9.58, 7487
25.23, 101653.28, 0.17,-0.57, 9.56, 7492
25.23, 101653.28, 0.23,-0.52, 9.60, 7497
25.23, 101653.28, 0.25,-0.46, 9.66, 7502
25.23, 101653.28, 0.31,-0.54, 9.62, 7507
25.23, 101650.64, 0.17,-0.52, 9.56, 7512
25.23, 101650.64, 0.17,-0.61, 9.58, 7517
25.23, 101650.64, 0.17,-0.57, 9.66, 7522
25.23, 101650.64, 0.21,-0.56, 9.58, 7527
25.23, 101650.64, 0.17,-0.57, 9.60, 7532
25.23, 101650.64, 0.15,-0.57, 9.54, 7537
25.23, 101650.64, 0.19,-0.56, 9.60, 7542
25.23, 101650.64, 0.15,-0.54, 9.64, 7547
25.23, 101651.84, 0.19,-0.61, 9.56, 7552
25.23, 101651.84, 0.19,-0.54, 9.60, 7557
25.23, 101651.84, 0.17,-0.61, 9.60, 7562
25.23, 101651.84, 0.21,-0.57, 9.60, 7567
25.23, 101651.84, 0.29,-0.56, 9.64, 7572
25.23, 101651.84, 0.23,-0.56, 9.62, 7577
25.23, 101651.84, 0.27,-0.48, 9.64, 7582
25.23, 101651.62, 0.17,-0.56, 9.77, 7587
25.23, 101651.62, 0.23,-0.59, 9.66, 7592
25.23, 101651.62, 0.27,-0.56, 9.67, 7597
25.23, 101651.62, 0.25,-0.59, 9.64, 7602
25.23, 101651.62, 0.25,-0.59, 9.71, 7607
25.23, 101651.62, 0.21,-0.46, 9.77, 7612
25.23, 101651.62, 0.25,-0.48, 9.73, 7617
25.23, 101650.32, 0.27,-0.50, 9.69, 7622
25.23, 101650.32, 0.15,-0.59, 9.67, 7627
25.23, 101650.32, 0.27,-0.57, 9.62, 7632
25.23, 101650.32, 0.17,-0.56, 9.69, 7637
25.23, 101650.32, 0.17,-0.56, 9.64, 7642
25.23, 101650.32, 0.25,-0.54, 9.62, 7647
25.23, 101650.32, 0.25,-0.57, 9.56, 7652
25.23, 101652.45, 0.25,-0.54, 9.64, 7657
25.23, 101652.45, 0.25,-0.48, 9.66, 7662
25.23, 101652.45, 0.27,-0.50, 9.66, 7667
25.23, 101652.45, 0.23,-0.54, 9.62, 7672
25.23, 101652.45, 0.27,-0.54, 9.62, 7677
25.23, 101652.45, 0.25,-0.52, 9.66, 7682
25.23, 101652.45, 0.23,-0.54, 9.66, 7687
25.23, 101652.12, 0.29,-0.54, 9.64, 7692
25.23, 101652.12, 0.25,-0.52, 9.60, 7697
25.23, 101652.12, 0.29,-0.56, 9.60, 7702
25.23, 101652.12, 0.27,-0.52, 9.73, 7707
25.23, 101652.12, 0.23,-0.52, 9.60, 7712
25.23, 101652.12, 0.25,-0.50, 9.67, 7717
25.23, 101652.12, 0.27,-0.46, 9.60, 7722
25.23, 101650.32, 0.25,-0.46, 9.41, 7727
25.23, 101650.32, 0.21,-0.52, 9.73, 7732
25.23, 101650.32, 0.27,-0.56, 9.64, 7737
25.23, 101650.32, 0.27,-0.57, 9.66, 7742
25.23, 101650.32, 0.31,-0.57, 9.54, 7747
25.23, 101650.32, 0.27,-0.65, 9.64, 7752
25.23, 101650.32, 0.21,-0.61, 9.64, 7757
25.23, 101653.83, 0.21,-0.61, 9.69, 7762
25.23, 101653.83, 0.21,-0.56, 9.77, 7767
25.23, 101653.83, 0.21,-0.57, 9.73, 7772
25.23, 101653.83, 0.25,-0.52, 9.67, 7777
25.23, 101653.83, 0.21,-0.54, 9.56, 7782
25.23, 101653.83, 0.17,-0.59, 9.60, 7787
25.23, 101653.83, 0.21,-0.52, 9.69, 7792
25.23, 101649.89, 0.27,-0.54, 9.66, 7797
25.23, 101649.89, 0.21,-0.56, 9.66, 7802
25.23, 101649.89, 0.23,-0.57, 9.67, 7807
25.23, 101649.89, 0.23,-0.50, 9.66, 7812
25.23, 101649.89, 0.29,-0.52, 9.64, 7817
25.23, 101649.89, 0.27,-0.54, 9.69, 7822
25.23, 101649.89, 0.17,-0.57, 9.66, 7827
25.23, 101651.62, 0.21,-0.52, 9.77, 7832
25.23, 101651.62, 0.19,-0.50, 9.79, 7837
25.23, 101651.62, 0.19,-0.54, 9.79, 7842
25.23, 101651.62, 0.17,-0.52, 9.64, 7847
25.23, 101651.62, 0.21,-0.48, 9.45, 7852
25.23, 101651.62, 0.25,-0.48, 9.60, 7857
25.23, 101651.62, 0.27,-0.52, 9.52, 7862
25.23, 101651.15, 0.25,-0.56, 9.54, 7867
25.23, 101651.15, 0.23,-0.56, 9.52, 7872
25.23, 101651.15, 0.23,-0.50, 9.52, 7877
25.23, 101651.15, 0.25,-0.52, 9.66, 7882
25.23, 101651.15, 0.21,-0.50, 9.66, 7887
25.23, 101651.15, 0.13,-0.57, 9.60, 7892
25.23, 101651.15, 0.21,-0.48, 9.60, 7897
25.23, 101651.95, 0.23,-0.59, 9.64, 7905
25.23, 101651.95, 0.19,-0.56, 9.64, 7909
25.23, 101651.95, 0.25,-0.56, 9.66, 7914
25.23, 101651.95, 0.21,-0.57, 9.66, 7919
25.23, 101651.95, 0.23,-0.56, 9.64, 7924
25.23, 101651.95, 0.19,-0.61, 9.60, 7929
25.23, 101651.95, 0.23,-0.57, 9.67, 7934
25.23, 101650.88, 0.17,-0.56, 9.66, 7939
25.23, 101650.88, 0.25,-0.50, 9.69, 7944
25.23, 101650.88, 0.25,-0.54, 9.69, 7949
25.23, 101650.88, 0.19,-0.52, 9.67, 7954
25.23, 101650.88, 0.19,-0.59, 9.75, 7959
25.23, 101650.88, 0.25,-0.56, 9.69, 7964
25.23, 101650.88, 0.25,-0.54, 9.60, 7969
25.23, 101651.46, 0.31,-0.54, 9.66, 7974
25.23, 101651.46, 0.27,-0.54, 9.62, 7979
25.23, 101651.46, 0.27,-0.61, 9.67, 7984
25.23, 101651.46, 0.23,-0.56, 9.54, 7989
25.23, 101651.46, 0.21,-0.54, 9.69, 7994
25.23, 101651.46, 0.27,-0.57, 9.60, 7999
25.23, 101651.46, 0.23,-0.52, 9.64, 8004
25.23, 101650.22, 0.25,-0.52, 9.62, 8009
25.23, 101650.22, 0.25,-0.54, 9.69, 8014
25.23, 101650.22, 0.23,-0.52, 9.60, 8019
25.23, 101650.22, 0.19,-0.57, 9.69, 8024
25.23, 101650.22, 0.21,-0.54, 9.62, 8029
25.23, 101650.22, 0.19,-0.59, 9.64, 8034
25.23, 101650.22, 0.25,-0.61, 9.67, 8039
25.23, 101650.22, 0.19,-0.54, 9.66, 8044
25.23, 101648.82, 0.19,-0.59, 9.66, 8049
25.23, 101648.82, 0.21,-0.56, 9.69, 8054
25.23, 101648.82, 0.23,-0.56, 9.73, 8059
25.23, 101648.82, 0.23,-0.59, 9.69, 8064
25.23, 101648.82, 0.19,-0.54, 9.67, 8069
25.23, 101648.82, 0.19,-0.54, 9.60, 8074
25.23, 101648.82, 0.23,-0.56, 9.56, 8079
25.23, 101650.48, 0.21,-0.56, 9.64, 8084
25.23, 101650.48, 0.27,-0.57, 9.64, 8089
25.23, 101650.48, 0.31,-0.54, 9.60, 8094
25.23, 101650.48, 0.17,-0.59, 9.67, 8099
25.23, 101650.48, 0.23,-0.50, 9.71, 8104
25.23, 101650.48, 0.31,-0.50, 9.69, 8109
25.23, 101650.48, 0.33,-0.59, 9.58, 8114
25.23, 101650.31, 0.17,-0.54, 9.60, 8119
25.23, 101650.31, 0.25,-0.56, 9.56, 8124
25.23, 101650.31, 0.29,-0.54, 9.60, 8129
25.23, 101650.31, 0.27,-0.50, 9.67, 8134
25.23, 101650.31, 0.21,-0.56, 9.62, 8139
25.23, 101650.31, 0.23,-0.50, 9.67, 8144
25.23, 101650.31, 0.25,-0.50, 9.69, 8149
25.23, 101650.97, 0.27,-0.50, 9.66, 8154
25.23, 101650.97, 0.23,-0.52, 9.67, 8159
25.23, 101650.97, 0.19,-0.59, 9.60, 8164
25.23, 101650.97, 0.19,-0.50, 9.62, 8169
25.23, 101650.97, 0.15,-0.54, 9.66, 8174
25.23, 101650.97, 0.25,-0.56, 9.60, 8179
25.23, 101650.97, 0.29,-0.61, 9.56, 8184
25.23, 101651.62, 0.27,-0.54, 9.69, 8189
25.23, 101651.62, 0.25,-0.56, 9.48, 8194
25.23, 101651.62, 0.25,-0.52, 9.67, 8199
25.23, 101651.62, 0.21,-0.59, 9.85, 8204
25.23, 101651.62, 0.21,-0.54, 9.52, 8209
25.23, 101651.62, 0.25,-0.52, 9.85, 8214
25.23, 101651.62, 0.19,-0.52, 9.48, 8219
25.23, 101653.61, 0.27,-0.50, 9.56, 8224
25.23, 101653.61, 0.25,-0.52, 9.60, 8229
25.23, 101653.61, 0.25,-0.52, 9.71, 8234
25.23, 101653.61, 0.27,-0.52, 9.64, 8239
25.23, 101653.61, 0.25,-0.54, 9.67, 8244
25.23, 101653.61, 0.27,-0.48, 9.62, 8249
25.23, 101653.61, 0.21,-0.50, 9.48, 8254
25.23, 101651.38, 0.23,-0.54, 9.64, 8259
25.23, 101651.38, 0.25,-0.56, 9.69, 8264
25.23, 101651.38, 0.23,-0.52, 9.64, 8269
25.23, 101651.38, 0.21,-0.56, 9.62, 8274
25.23, 101651.38, 0.23,-0.52, 9.58, 8279
25.23, 101651.38, 0.29,-0.46, 9.60, 8284
25.23, 101651.38, 0.25,-0.50, 9.62, 8289
25.23, 101652.12, 0.23,-0.54, 9.66, 8294
25.23, 101652.12, 0.21,-0.54, 9.62, 8299
25.23, 101652.12, 0.15,-0.54, 9.60, 8304
25.23, 101652.12, 0.17,-0.59, 9.60, 8309
25.23, 101652.12, 0.21,-0.57, 9.75, 8314
25.23, 101652.12, 0.23,-0.56, 9.71, 8319
25.23, 101652.12, 0.21,-0.63, 9.52, 8324
25.23, 101652.34, 0.27,-0.34, 9.75, 8329
25.23, 101652.34, 0.29,-0.50, 9.64, 8334
25.23, 101652.34, 0.29,-0.54, 9.52, 8339
25.23, 101652.34, 0.29,-0.50, 9.54, 8344
25.23, 101652.34, 0.25,-0.56, 9.60, 8349
25.23, 101652.34, 0.15,-0.52, 9.58, 8354
25.23, 101652.34, 0.17,-0.44, 9.60, 8359
25.23, 101650.64, 0.11,-0.54, 9.66, 8364
25.23, 101650.64, 0.27,-0.54, 9.66, 8369
25.23, 101650.64, 0.23,-0.59, 9.64, 8374
25.23, 101650.64, 0.23,-0.54, 9.66, 8379
25.23, 101650.64, 0.25,-0.48, 9.75, 8384
25.23, 101650.64, 0.25,-0.46, 9.66, 8389
25.23, 101650.64, 0.25,-0.56, 9.67, 8394
25.23, 101650.64, 0.25,-0.54, 9.66, 8399
25.23, 101652.18, 0.15,-0.56, 9.58, 8407
25.23, 101652.18, 0.19,-0.50, 9.60, 8411
25.23, 101652.18, 0.17,-0.48, 9.67, 8416
25.23, 101652.18, 0.21,-0.54, 9.58, 8421
25.23, 101652.18, 0.23,-0.57, 9.64, 8426
25.23, 101652.18, 0.27,-0.61, 9.75, 8431
25.23, 101652.62, 0.17,-0.57, 9.64, 8436
25.23, 101652.62, 0.23,-0.61, 9.69, 8441
25.23, 101652.62, 0.23,-0.56, 9.58, 8446
25.23, 101652.62, 0.21,-0.56, 9.62, 8451
25.23, 101652.62, 0.19,-0.52, 9.73, 8456
25.23, 101652.62, 0.25,-0.57, 9.62, 8461
25.23, 101652.62, 0.25,-0.54, 9.66, 8466
25.23, 101651.95, 0.25,-0.54, 9.60, 8471
25.23, 101651.95, 0.21,-0.56, 9.64, 8476
25.23, 101651.95, 0.15,-0.57, 9.67, 8481
25.23, 101651.95, 0.19,-0.57, 9.69, 8486
25.23, 101651.95, 0.23,-0.52, 9.66, 8491
25.23, 101651.95, 0.23,-0.54, 9.64, 8496
25.23, 101651.95, 0.21,-0.57, 9.66, 8501
25.23, 101652.56, 0.21,-0.59, 9.66, 8506
25.23, 101652.56, 0.19,-0.50, 9.64, 8511
25.23, 101652.56, 0.29,-0.57, 9.54, 8516
25.23, 101652.56, 0.23,-0.63, 9.58, 8521
25.23, 101652.56, 0.17,-0.57, 9.60, 8526
25.23, 101652.56, 0.11,-0.57, 9.64, 8531
25.23, 101652.56, 0.19,-0.56, 9.60, 8536
25.23, 101652.56, 0.23,-0.54, 9.58, 8541
25.23, 101654.49, 0.25,-0.54, 9.62, 8546
25.23, 101654.49, 0.25,-0.57, 9.60, 8551
25.23, 101654.49, 0.21,-0.56, 9.73, 8556
25.23, 101654.49, 0.25,-0.59, 9.66, 8561
25.23, 101654.49, 0.21,-0.61, 9.60, 8566
25.23, 101654.49, 0.23,-0.59, 9.67, 8571
25.23, 101654.49, 0.23,-0.59, 9.67, 8576
25.23, 101650.22, 0.25,-0.50, 9.58, 8581
25.23, 101650.22, 0.21,-0.59, 9.64, 8586
25.23, 101650.22, 0.19,-0.54, 9.62, 8591
25.23, 101650.22, 0.25,-0.54, 9.60, 8596
25.23, 101650.22, 0.19,-0.54, 9.67, 8601
25.23, 101650.22, 0.19,-0.56, 9.66, 8606
25.23, 101650.22, 0.17,-0.61, 9.66, 8611
25.23, 101651.80, 0.17,-0.54, 9.67, 8616
25.23, 101651.80, 0.27,-0.56, 9.64, 8621
25.23, 101651.80, 0.25,-0.56, 9.66, 8626
25.23, 101651.80, 0.21,-0.56, 9.64, 8631
25.23, 101651.80, 0.25,-0.59, 9.67, 8636
25.23, 101651.80, 0.25,-0.46, 9.69, 8641
25.23, 101651.80, 0.25,-0.54, 9.71, 8646
25.23, 101651.80, 0.25,-0.59, 9.67, 8651
25.23, 101651.80, 0.23,-0.59, 9.79, 8656
25.23, 101651.80, 0.21,-0.56, 9.77, 8661
25.23, 101651.80, 0.27,-0.48, 9.58, 8666
25.23, 101651.80, 0.29,-0.56, 9.66, 8671
25.23, 101651.80, 0.27,-0.52, 9.75, 8676
