External Temperature (C), Barometric Pressure (Pa), Acceleration X, Acceleration Y, Acceleration Z
25.09, 101646.38, 0.17,-0.57, 9.66, 734
25.09, 101645.72, 0.27,-0.57, 9.64, 745
25.09, 101645.72, 0.21,-0.61, 9.62, 749
25.09, 101645.72, 0.19,-0.57, 9.64, 754
25.09, 101645.72, 0.23,-0.54, 9.62, 759
25.09, 101645.72, 0.21,-0.56, 9.66, 764
25.09, 101645.72, 0.21,-0.57, 9.58, 769
25.09, 101645.72, 0.19,-0.57, 9.54, 774
25.09, 101644.78, 0.21,-0.61, 9.60, 779
25.09, 101644.78, 0.25,-0.52, 9.75, 784
25.09, 101644.78, 0.13,-0.57, 9.71, 789
25.09, 101644.78, 0.17,-0.59, 9.64, 794
25.09, 101644.78, 0.23,-0.59, 9.71, 799
25.09, 101644.78, 0.23,-0.61, 9.75, 804
25.09, 101644.78, 0.13,-0.59, 9.64, 809
25.09, 101645.89, 0.17,-0.57, 9.66, 814
25.09, 101645.89, 0.21,-0.54, 9.64, 819
25.09, 101645.89, 0.21,-0.56, 9.58, 824
25.09, 101645.89, 0.29,-0.54, 9.54, 829
25.09, 101645.89, 0.27,-0.59, 9.69, 834
25.09, 101645.89, 0.21,-0.59, 9.62, 839
25.09, 101645.89, 0.21,-0.57, 9.58, 844
25.09, 101641.87, 0.23,-0.65, 9.64, 849
25.09, 101641.87, 0.19,-0.67, 9.60, 854
25.09, 101641.87, 0.19,-0.56, 9.56, 859
25.09, 101641.87, 0.19,-0.57, 9.60, 864
25.09, 101641.87, 0.13,-0.54, 9.67, 869
25.09, 101641.87, 0.15,-0.63, 9.62, 874
25.09, 101641.87, 0.21,-0.65, 9.66, 879
25.09, 101641.54, 0.25,-0.59, 9.60, 884
25.09, 101641.54, 0.23,-0.48, 9.64, 889
25.09, 101641.54, 0.21,-0.54, 9.64, 894
25.09, 101641.54, 0.23,-0.57, 9.60, 899
25.09, 101641.54, 0.25,-0.52, 9.62, 904
25.09, 101641.54, 0.25,-0.56, 9.69, 909
25.09, 101641.54, 0.27,-0.61, 9.58, 914
25.09, 101643.84, 0.21,-0.54, 9.66, 919
25.09, 101642.97, 0.21,-0.50, 9.67, 924
25.09, 101642.97, 0.17,-0.54, 9.48, 929
25.09, 101642.97, 0.17,-0.52, 9.54, 934
25.09, 101642.97, 0.21,-0.59, 9.58, 939
25.09, 101642.97, 0.25,-0.61, 9.56, 944
25.09, 101642.97, 0.29,-0.59, 9.62, 949
25.09, 101642.97, 0.23,-0.56, 9.69, 954
25.09, 101644.51, 0.21,-0.50, 9.58, 959
25.09, 101644.51, 0.21,-0.54, 9.62, 964
25.09, 101644.51, 0.17,-0.56, 9.60, 969
25.09, 101644.51, 0.17,-0.59, 9.62, 974
25.09, 101644.51, 0.21,-0.61, 9.71, 979
25.09, 101644.51, 0.29,-0.61, 9.64, 984
25.09, 101644.51, 0.27,-0.59, 9.62, 989
25.09, 101642.14, 0.21,-0.59, 9.60, 994
25.09, 101642.14, 0.27,-0.59, 9.60, 999
25.09, 101642.14, 0.21,-0.52, 9.69, 1004
25.09, 101642.14, 0.29,-0.57, 9.67, 1009
25.09, 101642.14, 0.27,-0.56, 9.75, 1014
25.09, 101642.14, 0.27,-0.52, 9.77, 1019
25.09, 101642.14, 0.25,-0.56, 9.73, 1024
25.09, 101643.41, 0.23,-0.50, 9.79, 1029
25.09, 101643.41, 0.29,-0.57, 9.67, 1034
25.09, 101643.41, 0.25,-0.61, 9.83, 1039
25.09, 101643.41, 0.29,-0.57, 9.66, 1044
25.09, 101643.41, 0.25,-0.56, 9.77, 1049
25.09, 101643.41, 0.21,-0.56, 9.69, 1054
25.09, 101643.41, 0.27,-0.57, 9.58, 1059
25.09, 101644.08, 0.23,-0.52, 9.60, 1064
25.09, 101644.08, 0.25,-0.57, 9.64, 1069
25.09, 101644.08, 0.27,-0.59, 9.58, 1074
25.09, 101644.08, 0.23,-0.54, 9.48, 1079
25.09, 101644.08, 0.25,-0.61, 9.60, 1084
25.09, 101644.08, 0.25,-0.59, 9.60, 1089
25.09, 101644.08, 0.21,-0.57, 9.73, 1094
25.09, 101641.38, 0.29,-0.56, 9.66, 1099
25.09, 101641.38, 0.31,-0.57, 9.64, 1104
25.09, 101641.38, 0.33,-0.57, 9.58, 1109
25.09, 101641.38, 0.27,-0.61, 9.60, 1114
25.09, 101641.38, 0.25,-0.63, 9.58, 1119
25.09, 101641.38, 0.29,-0.59, 9.60, 1124
25.09, 101641.38, 0.21,-0.59, 9.67, 1129
25.09, 101642.97, 0.21,-0.61, 9.60, 1134
25.09, 101642.97, 0.15,-0.57, 9.64, 1139
25.09, 101642.97, 0.25,-0.57, 9.54, 1144
25.09, 101642.97, 0.21,-0.59, 9.66, 1149
25.09, 101642.97, 0.25,-0.44, 9.50, 1154
25.09, 101642.97, 0.27,-0.52, 9.54, 1159
25.09, 101642.97, 0.25,-0.59, 9.58, 1164
25.09, 101642.74, 0.23,-0.59, 9.69, 1169
25.09, 101642.74, 0.27,-0.63, 9.79, 1174
25.09, 101642.74, 0.27,-0.59, 9.71, 1179
25.09, 101642.74, 0.27,-0.56, 9.64, 1184
25.09, 101642.74, 0.27,-0.59, 9.66, 1189
25.09, 101642.74, 0.25,-0.57, 9.66, 1194
25.09, 101642.74, 0.23,-0.52, 9.62, 1199
25.09, 101643.52, 0.21,-0.52, 9.62, 1204
25.09, 101643.52, 0.27,-0.52, 9.58, 1209
25.09, 101643.52, 0.29,-0.52, 9.58, 1214
25.09, 101643.52, 0.27,-0.48, 9.64, 1219
25.09, 101643.52, 0.27,-0.56, 9.67, 1224
25.09, 101643.52, 0.23,-0.56, 9.67, 1229
25.09, 101643.52, 0.23,-0.59, 9.62, 1234
25.09, 101645.23, 0.19,-0.59, 9.67, 1239
25.09, 101645.23, 0.25,-0.56, 9.60, 1247
25.09, 101645.23, 0.29,-0.56, 9.43, 1251
25.09, 101645.23, 0.27,-0.50, 9.60, 1256
25.09, 101645.23, 0.23,-0.56, 9.48, 1261
25.09, 101645.23, 0.23,-0.46, 9.67, 1266
25.09, 101645.23, 0.19,-0.52, 9.62, 1271
25.09, 101643.69, 0.15,-0.56, 9.62, 1276
25.09, 101643.69, 0.21,-0.59, 9.60, 1281
25.09, 101643.69, 0.27,-0.61, 9.67, 1286
25.09, 101643.69, 0.25,-0.61, 9.64, 1291
25.09, 101643.69, 0.17,-0.50, 9.67, 1296
25.09, 101643.69, 0.23,-0.63, 9.66, 1301
25.09, 101643.69, 0.19,-0.59, 9.62, 1306
25.09, 101646.38, 0.19,-0.52, 9.60, 1311
25.09, 101646.38, 0.25,-0.57, 9.66, 1316
25.09, 101646.38, 0.11,-0.61, 9.60, 1321
25.09, 101646.38, 0.13,-0.61, 9.67, 1326
25.09, 101646.38, 0.21,-0.46, 9.64, 1331
25.09, 101646.38, 0.21,-0.50, 9.60, 1336
25.09, 101646.38, 0.31,-0.54, 9.62, 1341
25.09, 101644.56, 0.25,-0.61, 9.69, 1346
25.09, 101644.56, 0.25,-0.56, 9.67, 1351
25.09, 101644.56, 0.25,-0.63, 9.64, 1356
25.09, 101644.56, 0.19,-0.57, 9.67, 1361
25.09, 101644.56, 0.31,-0.56, 9.58, 1366
25.09, 101644.56, 0.29,-0.59, 9.67, 1371
25.09, 101644.56, 0.17,-0.48, 9.66, 1376
25.09, 101644.73, 0.19,-0.50, 9.52, 1381
25.09, 101644.73, 0.31,-0.52, 9.66, 1386
25.09, 101644.73, 0.31,-0.63, 9.66, 1391
25.09, 101644.73, 0.17,-0.56, 9.62, 1396
25.09, 101644.73, 0.29,-0.56, 9.58, 1401
25.09, 101644.73, 0.23,-0.52, 9.60, 1406
25.09, 101644.73, 0.21,-0.56, 9.71, 1411
25.09, 101648.29, 0.21,-0.61, 9.60, 1416
25.09, 101648.29, 0.23,-0.57, 9.62, 1421
25.09, 101648.29, 0.27,-0.57, 9.58, 1426
25.09, 101648.29, 0.23,-0.50, 9.62, 1431
25.09, 101648.29, 0.15,-0.56, 9.66, 1436
25.09, 101648.29, 0.21,-0.56, 9.58, 1441
25.09, 101648.29, 0.17,-0.57, 9.56, 1446
25.09, 101648.29, 0.19,-0.57, 9.62, 1451
25.09, 101644.67, 0.15,-0.61, 9.60, 1456
25.09, 101644.67, 0.15,-0.59, 9.62, 1461
25.09, 101644.67, 0.17,-0.61, 9.62, 1466
25.09, 101644.67, 0.17,-0.56, 9.67, 1471
25.09, 101644.67, 0.17,-0.59, 9.58, 1476
25.09, 101644.67, 0.21,-0.63, 9.64, 1481
25.09, 101644.67, 0.25,-0.65, 9.85, 1486
25.09, 101645.23, 0.23,-0.56, 9.52, 1491
25.09, 101645.23, 0.21,-0.52, 9.73, 1496
25.09, 101645.23, 0.17,-0.57, 9.73, 1501
25.09, 101645.23, 0.19,-0.65, 9.77, 1506
25.09, 101645.23, 0.19,-0.59, 9.52, 1511
25.09, 101645.23, 0.21,-0.61, 9.58, 1516
25.09, 101645.23, 0.27,-0.56, 9.58, 1521
25.09, 101644.67, 0.21,-0.63, 9.60, 1526
25.09, 101644.67, 0.19,-0.54, 9.58, 1531
25.09, 101644.67, 0.25,-0.54, 9.50, 1536
25.09, 101644.67, 0.33,-0.59, 9.67, 1541
25.09, 101644.67, 0.34,-0.56, 9.64, 1546
25.09, 101644.67, 0.27,-0.57, 9.56, 1551
25.09, 101644.67, 0.25,-0.59, 9.64, 1556
25.09, 101646.38, 0.29,-0.61, 9.60, 1561
25.09, 101646.38, 0.31,-0.61, 9.64, 1566
25.09, 101646.38, 0.25,-0.59, 9.67, 1571
25.09, 101646.38, 0.23,-0.56, 9.67, 1576
25.09, 101646.38, 0.23,-0.48, 9.62, 1581
25.09, 101646.38, 0.23,-0.48, 9.66, 1586
25.09, 101646.38, 0.27,-0.57, 9.69, 1591
25.09, 101643.91, 0.27,-0.57, 9.67, 1596
25.09, 101643.91, 0.19,-0.57, 9.62, 1601
25.09, 101643.91, 0.27,-0.57, 9.64, 1606
25.09, 101643.91, 0.25,-0.54, 9.66, 1611
25.09, 101643.91, 0.25,-0.61, 9.69, 1616
25.09, 101643.91, 0.23,-0.67, 9.71, 1621
25.09, 101643.91, 0.19,-0.63, 9.41, 1626
25.09, 101642.53, 0.25,-0.56, 9.73, 1631
25.09, 101642.53, 0.19,-0.57, 9.69, 1636
25.09, 101642.53, 0.17,-0.50, 9.60, 1641
25.09, 101642.53, 0.27,-0.57, 9.64, 1646
25.09, 101642.53, 0.21,-0.50, 9.67, 1651
25.09, 101642.53, 0.27,-0.56, 9.62, 1656
25.09, 101642.53, 0.19,-0.54, 9.69, 1661
25.09, 101647.04, 0.25,-0.56, 9.62, 1666
25.09, 101647.04, 0.25,-0.63, 9.69, 1671
25.09, 101647.04, 0.23,-0.63, 9.62, 1676
25.09, 101647.04, 0.27,-0.52, 9.66, 1681
25.09, 101647.04, 0.17,-0.52, 9.60, 1686
25.09, 101647.04, 0.17,-0.56, 9.56, 1691
25.09, 101647.04, 0.19,-0.54, 9.60, 1696
25.09, 101645.94, 0.19,-0.54, 9.64, 1701
25.09, 101645.94, 0.17,-0.50, 9.66, 1706
25.09, 101645.94, 0.17,-0.52, 9.75, 1711
25.09, 101645.94, 0.25,-0.56, 9.73, 1716
25.09, 101645.94, 0.19,-0.57, 9.71, 1721
25.09, 101645.94, 0.29,-0.57, 9.85, 1726
25.09, 101645.94, 0.27,-0.59, 9.35, 1731
25.09, 101644.45, 0.19,-0.63, 9.52, 1736
25.09, 101644.45, 0.23,-0.57, 9.37, 1741
25.09, 101644.45, 0.23,-0.56, 9.45, 1749
25.09, 101644.45, 0.21,-0.56, 9.52, 1753
25.09, 101644.45, 0.23,-0.56, 9.58, 1758
25.09, 101644.45, 0.27,-0.56, 9.58, 1763
25.09, 101644.45, 0.23,-0.56, 9.69, 1768
25.09, 101641.81, 0.23,-0.54, 9.62, 1773
25.09, 101641.81, 0.27,-0.57, 9.71, 1778
25.09, 101641.81, 0.27,-0.54, 9.58, 1783
25.09, 101641.81, 0.25,-0.54, 9.60, 1788
25.09, 101641.81, 0.27,-0.52, 9.58, 1793
25.09, 101641.81, 0.29,-0.57, 9.58, 1798
25.09, 101641.81, 0.27,-0.56, 9.62, 1803
25.09, 101642.97, 0.13,-0.54, 9.52, 1808
25.09, 101642.97, 0.31,-0.56, 9.69, 1813
25.09, 101642.97, 0.27,-0.52, 9.69, 1818
25.09, 101642.97, 0.27,-0.56, 9.75, 1823
25.09, 101642.97, 0.25,-0.57, 9.71, 1828
25.09, 101642.97, 0.31,-0.56, 9.71, 1833
25.09, 101642.97, 0.29,-0.54, 9.87, 1838
25.09, 101640.50, 0.19,-0.61, 9.71, 1843
25.09, 101640.50, 0.17,-0.57, 9.67, 1848
25.09, 101640.50, 0.19,-0.57, 9.58, 1853
25.09, 101640.50, 0.17,-0.56, 9.54, 1858
25.09, 101640.50, 0.13,-0.57, 9.58, 1863
25.09, 101640.50, 0.27,-0.56, 9.58, 1868
25.09, 101640.50, 0.27,-0.54, 9.66, 1873
25.09, 101644.51, 0.29,-0.61, 9.73, 1878
25.09, 101644.51, 0.27,-0.56, 9.64, 1883
25.09, 101644.51, 0.31,-0.52, 9.62, 1888
25.09, 101644.51, 0.25,-0.54, 9.56, 1893
25.09, 101644.51, 0.27,-0.59, 9.58, 1898
25.09, 101644.51, 0.25,-0.56, 9.52, 1903
25.09, 101644.51, 0.23,-0.57, 9.60, 1908
25.09, 101641.81, 0.15,-0.54, 9.62, 1913
25.09, 101641.81, 0.23,-0.54, 9.62, 1918
25.09, 101641.81, 0.25,-0.57, 9.60, 1923
25.09, 101641.81, 0.25,-0.56, 9.62, 1928
25.09, 101641.81, 0.33,-0.57, 9.66, 1933
25.09, 101641.81, 0.31,-0.56, 9.66, 1938
25.09, 101641.81, 0.19,-0.48, 9.62, 1943
25.09, 101641.81, 0.25,-0.48, 9.46, 1948
25.09, 101643.58, 0.21,-0.48, 9.45, 1953
25.09, 101643.58, 0.25,-0.57, 9.62, 1958
25.09, 101643.58, 0.25,-0.56, 9.64, 1963
25.09, 101643.58, 0.19,-0.54, 9.54, 1968
25.09, 101643.58, 0.25,-0.57, 9.56, 1973
25.09, 101643.58, 0.25,-0.57, 9.64, 1978
25.09, 101643.58, 0.33,-0.67, 9.66, 1983
25.09, 101642.86, 0.17,-0.65, 9.71, 1988
25.09, 101642.86, 0.23,-0.57, 9.71, 1993
25.09, 101642.86, 0.27,-0.56, 9.81, 1998
25.09, 101642.86, 0.27,-0.50, 9.67, 2003
25.09, 101642.86, 0.25,-0.50, 9.66, 2008
25.09, 101642.86, 0.17,-0.59, 9.64, 2013
25.09, 101642.86, 0.25,-0.54, 9.60, 2018
25.09, 101644.18, 0.21,-0.52, 9.60, 2023
25.09, 101644.18, 0.25,-0.54, 9.62, 2028
25.09, 101644.18, 0.19,-0.57, 9.62, 2033
25.09, 101644.18, 0.25,-0.61, 9.58, 2038
25.09, 101644.18, 0.25,-0.57, 9.62, 2043
25.09, 101644.18, 0.31,-0.57, 9.69, 2048
25.09, 101644.18, 0.27,-0.61, 9.69, 2053
25.09, 101642.86, 0.23,-0.59, 9.81, 2058
25.09, 101642.86, 0.21,-0.59, 9.79, 2063
25.09, 101642.86, 0.31,-0.54, 9.83, 2068
25.09, 101642.86, 0.17,-0.57, 9.69, 2073
25.09, 101642.86, 0.21,-0.61, 9.54, 2078
25.09, 101642.86, 0.21,-0.63, 9.27, 2083
25.09, 101642.86, 0.27,-0.56, 9.48, 2088
25.09, 101643.25, 0.17,-0.57, 9.64, 2093
25.09, 101643.25, 0.23,-0.63, 9.58, 2098
25.09, 101643.25, 0.21,-0.61, 9.69, 2103
25.09, 101643.25, 0.25,-0.52, 9.60, 2108
25.09, 101643.25, 0.27,-0.50, 9.67, 2113
25.09, 101643.25, 0.29,-0.56, 9.64, 2118
25.09, 101643.25, 0.23,-0.59, 9.62, 2123
25.09, 101641.64, 0.17,-0.59, 9.62, 2128
25.09, 101641.64, 0.23,-0.59, 9.58, 2133
25.09, 101641.64, 0.27,-0.59, 9.62, 2138
25.09, 101641.64, 0.25,-0.59, 9.62, 2143
25.09, 101641.64, 0.29,-0.56, 9.62, 2148
25.09, 101641.64, 0.27,-0.57, 9.64, 2153
25.09, 101641.64, 0.21,-0.56, 9.67, 2158
25.09, 101640.48, 0.19,-0.52, 9.60, 2163
25.09, 101640.48, 0.21,-0.54, 9.64, 2168
25.09, 101640.48, 0.27,-0.65, 9.71, 2173
25.09, 101640.48, 0.23,-0.50, 9.56, 2178
25.09, 101640.48, 0.25,-0.52, 9.66, 2183
25.09, 101640.48, 0.29,-0.50, 9.58, 2188
25.09, 101640.48, 0.21,-0.56, 9.62, 2193
25.09, 101640.82, 0.31,-0.59, 9.67, 2198
25.09, 101640.82, 0.31,-0.61, 9.69, 2203
25.09, 101640.82, 0.33,-0.61, 9.66, 2208
25.09, 101640.82, 0.29,-0.54, 9.67, 2213
25.09, 101640.82, 0.29,-0.57, 9.69, 2218
25.09, 101640.82, 0.25,-0.52, 9.66, 2223
25.09, 101640.82, 0.31,-0.59, 9.58, 2228
25.09, 101644.51, 0.23,-0.59, 9.66, 2233
25.09, 101644.51, 0.27,-0.59, 9.64, 2238
25.09, 101644.51, 0.29,-0.59, 9.62, 2243
25.09, 101644.51, 0.21,-0.54, 9.62, 2251
25.09, 101644.51, 0.23,-0.52, 9.62, 2255
25.09, 101644.51, 0.21,-0.52, 9.64, 2260
25.09, 101644.51, 0.27,-0.52, 9.62, 2265
25.09, 101640.01, 0.23,-0.59, 9.75, 2270
25.09, 101640.01, 0.25,-0.63, 9.73, 2275
25.09, 101640.01, 0.27,-0.54, 9.67, 2280
25.09, 101640.01, 0.17,-0.56, 9.77, 2285
25.09, 101640.01, 0.19,-0.52, 9.90, 2290
25.09, 101640.01, 0.11,-0.57, 9.62, 2295
25.09, 101640.01, 0.19,-0.50, 9.58, 2300
25.09, 101643.80, 0.25,-0.56, 9.66, 2305
25.09, 101643.80, 0.29,-0.59, 9.69, 2310
25.09, 101643.80, 0.25,-0.52, 9.60, 2315
25.09, 101643.80, 0.34,-0.54, 9.58, 2320
25.09, 101643.80, 0.25,-0.54, 9.62, 2325
25.09, 101643.80, 0.25,-0.54, 9.66, 2330
25.09, 101643.80, 0.21,-0.50, 9.64, 2335
25.09, 101643.90, 0.21,-0.59, 9.69, 2340
25.09, 101643.90, 0.21,-0.63, 9.66, 2345
25.09, 101643.90, 0.17,-0.54, 9.64, 2350
25.09, 101643.90, 0.19,-0.54, 9.69, 2355
25.09, 101643.90, 0.19,-0.52, 9.62, 2360
25.09, 101643.90, 0.23,-0.48, 9.69, 2365
25.09, 101643.90, 0.23,-0.56, 9.62, 2370
25.09, 101643.23, 0.27,-0.57, 9.60, 2375
25.09, 101643.23, 0.31,-0.52, 9.60, 2380
25.09, 101643.23, 0.29,-0.57, 9.52, 2385
25.09, 101643.23, 0.17,-0.54, 9.73, 2390
25.09, 101643.23, 0.23,-0.63, 9.54, 2395
25.09, 101643.23, 0.21,-0.69, 9.77, 2400
25.09, 101643.23, 0.25,-0.63, 9.75, 2405
25.09, 101643.95, 0.29,-0.54, 9.43, 2410
25.09, 101643.95, 0.25,-0.54, 9.71, 2415
25.09, 101643.95, 0.33,-0.54, 9.67, 2420
25.09, 101643.95, 0.19,-0.54, 9.62, 2425
25.09, 101643.95, 0.21,-0.54, 9.54, 2430
25.09, 101643.95, 0.19,-0.61, 9.66, 2435
25.09, 101643.95, 0.19,-0.57, 9.58, 2440
25.09, 101643.57, 0.19,-0.61, 9.64, 2445
25.09, 101643.57, 0.21,-0.61, 9.58, 2450
25.09, 101643.57, 0.19,-0.59, 9.69, 2455
25.09, 101643.57, 0.19,-0.57, 9.67, 2460
25.09, 101643.57, 0.23,-0.63, 9.60, 2465
25.09, 101643.57, 0.21,-0.52, 9.52, 2470
25.09, 101643.57, 0.15,-0.50, 9.71, 2475
25.09, 101643.57, 0.15,-0.42, 9.62, 2480
25.09, 101642.74, 0.10,-0.59, 9.50, 2485
25.09, 101642.74, 0.11,-0.48, 9.64, 2490
25.09, 101642.74, 0.08,-0.36, 9.77, 2495
25.09, 101642.74, -0.02,-0.44, 9.48, 2500
25.09, 101642.74, 0.21,-0.48, 9.52, 2505
25.09, 101642.74, 0.48,-0.71, 9.94, 2510
25.09, 101642.74, 0.46,-0.92, 10.25, 2515
25.09, 101644.89, 0.29,-0.69, 9.96, 2520
25.09, 101644.89, 0.10,-0.59, 9.54, 2525
25.09, 101644.89, 0.29,-0.44, 9.23, 2530
25.09, 101644.89, 0.77,-0.46, 8.97, 2535
25.09, 101644.89, 0.52,-0.59, 9.14, 2540
25.09, 101644.89, 0.13,-0.42, 9.66, 2545
25.09, 101644.89, 0.02,-0.57, 9.85, 2550
25.09, 101643.95, 0.44,-0.61, 9.60, 2555
25.09, 101643.95, 0.48,-0.34, 9.33, 2560
25.09, 101643.95, 0.13,-0.33, 9.45, 2565
25.09, 101643.95, 0.23,-0.65, 10.13, 2570
25.09, 101643.95, 0.38,-0.73, 10.35, 2575
25.09, 101643.95, 0.50,-0.61, 9.83, 2580
25.09, 101643.95, 0.34,-0.29, 9.12, 2585
25.09, 101645.27, 0.19,-0.42, 9.00, 2590
25.09, 101645.27, 0.38,-0.52, 9.46, 2595
25.09, 101645.27, 0.52,-0.77, 9.81, 2600
25.09, 101645.27, 0.34,-0.75, 9.67, 2605
25.09, 101645.27, 0.31,-0.54, 9.43, 2610
25.09, 101645.27, 0.23,-0.57, 9.48, 2615
25.09, 101645.27, 0.11,-0.75, 9.64, 2620
25.09, 101642.80, 0.06,-0.71, 9.90, 2625
25.09, 101642.80, 0.06,-0.63, 9.96, 2630
25.09, 101642.80, 0.19,-0.57, 9.77, 2635
25.09, 101642.80, 0.02,-0.48, 9.58, 2640
25.09, 101642.80, 0.08,-0.42, 9.46, 2645
25.09, 101642.80, 0.04,-0.40, 9.35, 2650
25.09, 101642.80, 0.04,-0.50, 9.45, 2655
25.09, 101641.17, 0.15,-0.59, 9.50, 2660
25.09, 101641.17, 0.23,-0.63, 9.73, 2665
25.09, 101641.17, 0.19,-0.71, 9.73, 2670
25.09, 101641.17, 0.25,-0.65, 9.64, 2675
25.09, 101641.17, 0.23,-0.42, 9.54, 2680
25.09, 101641.17, 0.38,-0.48, 9.64, 2685
25.09, 101641.17, 0.36,-0.48, 9.54, 2690
25.09, 101642.80, 0.36,-0.44, 9.66, 2695
25.09, 101642.80, 0.33,-0.57, 9.79, 2700
25.09, 101642.80, 0.34,-0.63, 9.64, 2705
25.09, 101642.80, 0.40,-0.48, 9.54, 2710
25.09, 101642.80, 0.25,-0.57, 9.50, 2715
25.09, 101642.80, 0.29,-0.56, 9.56, 2720
25.09, 101642.80, 0.13,-0.59, 9.71, 2725
25.09, 101643.46, 0.31,-0.52, 9.73, 2730
25.09, 101643.46, 0.19,-0.50, 9.56, 2735
25.09, 101643.46, 0.19,-0.52, 9.60, 2740
25.09, 101643.46, 0.15,-0.52, 9.62, 2745
25.09, 101643.46, 0.13,-0.61, 9.73, 2753
25.09, 101643.46, 0.19,-0.61, 9.79, 2758
25.09, 101643.46, 0.15,-0.56, 9.56, 2762
25.09, 101644.12, 0.13,-0.63, 9.50, 2767
25.09, 101644.12, 0.15,-0.61, 9.67, 2772
25.09, 101644.12, 0.15,-0.57, 9.64, 2777
25.09, 101644.12, 0.04,-0.63, 9.60, 2782
25.09, 101644.12, 0.19,-0.57, 9.64, 2787
25.09, 101644.12, 0.15,-0.57, 9.66, 2792
25.09, 101644.12, 0.23,-0.59, 9.64, 2797
25.09, 101642.97, 0.21,-0.54, 9.69, 2802
25.09, 101642.97, 0.23,-0.52, 9.64, 2807
25.09, 101642.97, 0.25,-0.54, 9.64, 2812
25.09, 101642.97, 0.34,-0.57, 9.64, 2817
25.09, 101642.97, 0.29,-0.57, 9.62, 2822
25.09, 101642.97, 0.25,-0.59, 9.58, 2827
25.09, 101642.97, 0.31,-0.59, 9.60, 2832
25.09, 101644.18, 0.33,-0.63, 9.58, 2837
25.09, 101644.18, 0.33,-0.52, 9.58, 2842
25.09, 101644.18, 0.31,-0.54, 9.58, 2847
25.09, 101644.18, 0.36,-0.57, 9.69, 2852
25.09, 101644.18, 0.34,-0.61, 9.64, 2857
25.09, 101644.18, 0.36,-0.52, 9.60, 2862
25.09, 101644.18, 0.23,-0.56, 9.67, 2867
25.09, 101643.95, 0.27,-0.48, 9.66, 2872
25.09, 101643.95, 0.21,-0.46, 9.71, 2877
25.09, 101643.95, 0.25,-0.65, 9.64, 2882
25.09, 101643.95, 0.19,-0.57, 9.56, 2887
25.09, 101643.95, 0.15,-0.52, 9.66, 2892
25.09, 101643.95, 0.11,-0.56, 9.66, 2897
25.09, 101643.95, 0.13,-0.57, 9.69, 2902
25.09, 101641.16, 0.19,-0.61, 9.71, 2907
25.09, 101641.16, 0.23,-0.56, 9.64, 2912
25.09, 101641.16, 0.21,-0.52, 9.62, 2917
25.09, 101641.16, 0.25,-0.56, 9.69, 2922
25.09, 101641.16, 0.27,-0.56, 9.69, 2927
25.09, 101641.16, 0.25,-0.54, 9.66, 2932
25.09, 101641.16, 0.23,-0.56, 9.73, 2937
25.09, 101642.47, 0.29,-0.56, 9.62, 2942
25.09, 101642.47, 0.25,-0.57, 9.58, 2947
25.09, 101642.47, 0.23,-0.57, 9.60, 2952
25.09, 101642.47, 0.25,-0.61, 9.58, 2957
25.09, 101642.47, 0.23,-0.59, 9.60, 2962
25.09, 101642.47, 0.25,-0.52, 9.62, 2967
25.09, 101642.47, 0.25,-0.48, 9.62, 2972
25.09, 101645.77, 0.25,-0.54, 9.66, 2977
25.09, 101645.77, 0.21,-0.57, 9.73, 2982
25.09, 101645.77, 0.21,-0.56, 9.69, 2987
25.09, 101645.77, 0.23,-0.52, 9.69, 2992
25.09, 101645.77, 0.21,-0.42, 9.45, 2997
25.09, 101645.77, 0.21,-0.54, 9.50, 3002
25.09, 101645.77, 0.11,-0.48, 9.58, 3007
25.09, 101645.77, 0.21,-0.46, 9.45, 3012
25.09, 101641.75, 0.17,-0.48, 9.66, 3017
25.09, 101641.75, 0.21,-0.40, 9.56, 3022
25.09, 101641.75, 0.21,-0.40, 9.52, 3027
25.09, 101641.75, 0.17,-0.21, 9.77, 3032
25.09, 101641.75, 0.15,-0.21, 9.64, 3037
25.09, 101641.75, 0.06,-0.21, 9.85, 3042
25.09, 101641.75, 0.11,-0.27, 9.69, 3047
25.09, 101643.80, 0.04,-0.27, 9.64, 3052
25.09, 101643.80, 0.00,-0.21, 9.58, 3057
25.09, 101643.80, 0.02,-0.31, 9.71, 3062
25.09, 101643.80, 0.06,-0.44, 9.87, 3067
25.09, 101643.80, 0.08,-0.33, 9.67, 3072
25.09, 101643.80, 0.08,-0.50, 9.56, 3077
25.09, 101643.80, 0.17,-0.50, 9.67, 3082
25.09, 101644.51, 0.23,-0.71, 9.87, 3087
25.09, 101644.51, 0.25,-0.80, 9.77, 3092
25.09, 101644.51, 0.27,-0.80, 9.54, 3097
25.09, 101644.51, 0.33,-0.98, 9.43, 3102
25.09, 101644.51, 0.34,-0.96, 9.64, 3107
25.09, 101644.51, 0.31,-1.09, 9.64, 3112
25.09, 101644.51, 0.40,-1.00, 9.75, 3117
25.09, 101641.16, 0.36,-0.82, 9.52, 3122
25.09, 101641.16, 0.38,-0.82, 9.45, 3127
25.09, 101641.16, 0.54,-0.79, 9.39, 3132
25.09, 101641.16, 0.52,-0.84, 9.83, 3137
25.09, 101641.16, 0.57,-0.96, 9.98, 3142
25.09, 101641.16, 0.52,-1.07, 9.83, 3147
25.09, 101641.16, 0.54,-0.86, 9.71, 3152
25.09, 101641.98, 0.52,-0.75, 9.52, 3157
25.09, 101641.98, 0.36,-0.54, 9.39, 3162
25.09, 101641.98, 0.29,-0.52, 9.64, 3167
25.09, 101641.98, 0.40,-0.48, 9.75, 3172
25.09, 101641.98, 0.29,-0.31, 9.66, 3177
25.09, 101641.98, 0.17,-0.33, 9.60, 3182
25.09, 101641.98, 0.17,-0.29, 9.64, 3187
25.09, 101643.84, 0.25,-0.56, 9.73, 3192
25.09, 101643.84, 0.31,-0.69, 9.79, 3197
25.09, 101643.84, 0.29,-0.77, 9.77, 3202
25.09, 101643.84, 0.25,-0.67, 9.58, 3207
25.09, 101643.84, 0.17,-0.71, 9.43, 3212
25.09, 101643.84, 0.21,-0.59, 9.50, 3217
25.09, 101643.84, 0.23,-0.57, 9.58, 3222
25.09, 101642.97, 0.21,-0.57, 9.62, 3227
25.09, 101642.97, 0.21,-0.56, 9.73, 3232
25.09, 101642.97, 0.17,-0.54, 9.77, 3237
25.09, 101642.97, 0.19,-0.50, 9.77, 3242
25.09, 101642.97, 0.15,-0.59, 9.73, 3247
25.09, 101642.97, 0.17,-0.63, 9.66, 3255
25.09, 101642.97, 0.15,-0.56, 9.54, 3259
25.09, 101642.14, 0.11,-0.48, 9.62, 3264
25.09, 101642.14, 0.17,-0.46, 9.56, 3269
25.09, 101642.14, 0.27,-0.57, 9.52, 3274
25.09, 101642.14, 0.23,-0.52, 9.58, 3279
25.09, 101642.14, 0.23,-0.57, 9.73, 3284
25.09, 101642.14, 0.31,-0.59, 9.77, 3289
25.09, 101642.14, 0.23,-0.61, 9.75, 3294
25.09, 101644.84, 0.25,-0.67, 9.75, 3299
25.09, 101644.84, 0.23,-0.61, 9.71, 3304
25.09, 101644.84, 0.27,-0.61, 9.62, 3309
25.09, 101644.84, 0.19,-0.54, 9.58, 3314
25.09, 101644.84, 0.29,-0.59, 9.60, 3319
25.09, 101644.84, 0.33,-0.59, 9.60, 3324
25.09, 101644.84, 0.23,-0.57, 9.66, 3329
25.09, 101645.66, 0.31,-0.56, 9.60, 3334
25.09, 101645.66, 0.19,-0.56, 9.64, 3339
25.09, 101645.66, 0.29,-0.46, 9.75, 3344
25.09, 101645.66, 0.33,-0.48, 9.75, 3349
25.09, 101645.66, 0.34,-0.46, 9.77, 3354
25.09, 101645.66, 0.34,-0.44, 9.73, 3359
25.09, 101645.66, 0.36,-0.59, 9.77, 3364
25.09, 101645.00, 0.21,-0.57, 9.73, 3369
25.09, 101645.00, 0.23,-0.57, 9.69, 3374
25.09, 101645.00, 0.25,-0.65, 9.66, 3379
25.09, 101645.00, 0.21,-0.65, 9.66, 3384
25.09, 101645.00, 0.13,-0.65, 9.52, 3389
25.09, 101645.00, 0.10,-0.69, 9.56, 3394
25.09, 101645.00, 0.11,-0.61, 9.69, 3399
25.09, 101643.30, 0.13,-0.59, 9.67, 3404
25.09, 101643.30, 0.10,-0.54, 9.66, 3409
25.09, 101643.30, 0.19,-0.56, 9.77, 3414
25.09, 101643.30, 0.13,-0.52, 9.81, 3419
25.09, 101643.30, 0.13,-0.57, 9.60, 3424
25.09, 101643.30, 0.23,-0.48, 9.62, 3429
25.09, 101643.30, 0.25,-0.56, 9.62, 3434
25.09, 101645.56, 0.27,-0.63, 9.56, 3439
25.09, 101645.56, 0.33,-0.54, 9.62, 3444
25.09, 101645.56, 0.38,-0.63, 9.62, 3449
25.09, 101645.56, 0.33,-0.57, 9.58, 3454
25.09, 101645.56, 0.38,-0.56, 9.62, 3459
25.09, 101645.56, 0.33,-0.56, 9.79, 3464
25.09, 101645.56, 0.25,-0.61, 9.69, 3469
25.09, 101644.84, 0.34,-0.54, 9.75, 3474
25.09, 101644.84, 0.36,-0.54, 9.77, 3479
25.09, 101644.84, 0.33,-0.56, 9.64, 3484
25.09, 101644.84, 0.33,-0.65, 9.56, 3489
25.09, 101644.84, 0.34,-0.57, 9.67, 3494
25.09, 101644.84, 0.31,-0.54, 9.60, 3499
25.09, 101644.84, 0.25,-0.67, 9.67, 3504
25.09, 101644.84, 0.27,-0.56, 9.60, 3509
25.09, 101643.69, 0.31,-0.61, 9.62, 3514
25.09, 101643.69, 0.25,-0.54, 9.69, 3519
25.09, 101643.69, 0.17,-0.59, 9.64, 3524
25.09, 101643.69, 0.17,-0.54, 9.73, 3529
25.09, 101643.69, 0.17,-0.54, 9.67, 3534
25.09, 101643.69, 0.17,-0.61, 9.71, 3539
25.09, 101643.69, 0.21,-0.54, 9.73, 3544
25.09, 101642.63, 0.15,-0.57, 9.66, 3549
25.09, 101642.63, 0.13,-0.65, 9.60, 3554
25.09, 101642.63, 0.15,-0.59, 9.60, 3559
25.09, 101642.63, 0.17,-0.52, 9.64, 3564
25.09, 101642.63, 0.21,-0.65, 9.60, 3569
25.09, 101642.63, 0.19,-0.61, 9.58, 3574
25.09, 101642.63, 0.10,-0.59, 9.67, 3579
25.09, 101641.31, 0.17,-0.54, 9.60, 3584
25.09, 101641.31, 0.23,-0.59, 9.62, 3589
25.09, 101641.31, 0.23,-0.54, 9.66, 3594
25.09, 101641.31, 0.29,-0.46, 9.66, 3599
25.09, 101641.31, 0.23,-0.52, 9.39, 3604
25.09, 101641.31, 0.29,-0.52, 9.62, 3609
25.09, 101641.31, 0.25,-0.52, 9.64, 3614
25.09, 101644.34, 0.27,-0.46, 9.54, 3619
25.09, 101644.34, 0.33,-0.54, 9.54, 3624
25.09, 101644.34, 0.29,-0.63, 9.58, 3629
25.09, 101644.34, 0.21,-0.52, 9.58, 3634
25.09, 101644.34, 0.17,-0.59, 9.66, 3639
25.09, 101644.34, 0.27,-0.54, 9.66, 3644
25.09, 101644.34, 0.17,-0.52, 9.62, 3649
25.09, 101644.28, 0.19,-0.48, 9.66, 3654
25.09, 101644.28, 0.25,-0.63, 9.60, 3659
25.09, 101644.28, 0.19,-0.61, 9.69, 3664
25.09, 101644.28, 0.17,-0.57, 9.66, 3669
25.09, 101644.28, 0.15,-0.57, 9.66, 3674
25.09, 101644.28, 0.10,-0.57, 9.62, 3679
25.09, 101644.28, 0.21,-0.61, 9.58, 3684
25.09, 101643.84, 0.23,-0.59, 9.58, 3689
25.09, 101643.84, 0.19,-0.57, 9.62, 3694
25.09, 101643.84, 0.23,-0.54, 9.67, 3699
25.09, 101643.84, 0.25,-0.57, 9.56, 3704
25.09, 101643.84, 0.23,-0.57, 9.67, 3709
25.09, 101643.84, 0.25,-0.56, 9.62, 3714
25.09, 101643.84, 0.27,-0.54, 9.69, 3719
25.09, 101643.91, 0.23,-0.56, 9.64, 3724
25.09, 101643.91, 0.27,-0.59, 9.69, 3729
25.09, 101643.91, 0.13,-0.59, 9.64, 3734
25.09, 101643.91, 0.15,-0.54, 9.56, 3739
25.09, 101643.91, 0.23,-0.56, 9.52, 3744
25.09, 101643.91, 0.21,-0.54, 9.69, 3749
25.09, 101643.91, 0.27,-0.52, 9.64, 3757
25.09, 101645.34, 0.23,-0.50, 9.67, 3761
25.09, 101645.34, 0.23,-0.56, 9.73, 3766
25.09, 101645.34, 0.23,-0.54, 9.64, 3771
25.09, 101645.34, 0.19,-0.54, 9.60, 3776
25.09, 101645.34, 0.25,-0.54, 9.64, 3781
25.09, 101645.34, 0.29,-0.42, 9.67, 3786
25.09, 101645.34, 0.29,-0.57, 9.66, 3791
25.09, 101642.20, 0.31,-0.56, 9.62, 3796
25.09, 101642.20, 0.23,-0.65, 9.62, 3801
25.09, 101642.20, 0.27,-0.57, 9.50, 3806
25.09, 101642.20, 0.23,-0.52, 9.64, 3811
25.09, 101642.20, 0.25,-0.48, 9.58, 3816
25.09, 101642.20, 0.25,-0.57, 9.66, 3821
25.09, 101642.20, 0.33,-0.56, 9.56, 3826
25.09, 101647.20, 0.33,-0.52, 9.41, 3831
25.09, 101647.20, 0.21,-0.54, 9.48, 3836
25.09, 101647.20, 0.19,-0.63, 9.66, 3841
25.09, 101647.20, 0.23,-0.59, 9.64, 3846
25.09, 101647.20, 0.27,-0.61, 9.60, 3851
25.09, 101647.20, 0.33,-0.56, 9.62, 3856
25.09, 101647.20, 0.31,-0.59, 9.52, 3861
25.09, 101644.89, 0.25,-0.56, 9.43, 3866
25.09, 101644.89, 0.15,-0.57, 9.58, 3871
25.09, 101644.89, 0.21,-0.56, 9.66, 3876
25.09, 101644.89, 0.19,-0.48, 9.67, 3881
25.09, 101644.89, 0.29,-0.57, 9.67, 3886
25.09, 101644.89, 0.21,-0.54, 9.66, 3891
25.09, 101644.89, 0.19,-0.57, 9.67, 3896
25.09, 101645.56, 0.23,-0.59, 9.60, 3901
25.09, 101645.56, 0.23,-0.56, 9.60, 3906
25.09, 101645.56, 0.15,-0.59, 9.62, 3911
25.09, 101645.56, 0.27,-0.52, 9.58, 3916
25.09, 101645.56, 0.29,-0.57, 9.58, 3921
25.09, 101645.56, 0.25,-0.57, 9.66, 3926
25.09, 101645.56, 0.29,-0.56, 9.69, 3931
25.09, 101645.23, 0.29,-0.59, 9.64, 3936
25.09, 101645.23, 0.25,-0.54, 9.62, 3941
25.09, 101645.23, 0.23,-0.65, 9.73, 3946
25.09, 101645.23, 0.23,-0.59, 9.43, 3951
25.09, 101645.23, 0.21,-0.59, 9.81, 3956
25.09, 101645.23, 0.23,-0.57, 9.56, 3961
25.09, 101645.23, 0.23,-0.63, 9.56, 3966
25.09, 101643.62, 0.21,-0.67, 9.50, 3971
25.09, 101643.62, 0.23,-0.56, 9.54, 3976
25.09, 101643.62, 0.21,-0.54, 9.62, 3981
25.09, 101643.62, 0.19,-0.61, 9.69, 3986
25.09, 101643.62, 0.19,-0.63, 9.67, 3991
25.09, 101643.62, 0.19,-0.57, 9.69, 3996
25.09, 101643.62, 0.13,-0.54, 9.81, 4001
25.09, 101646.38, 0.17,-0.57, 9.64, 4006
25.09, 101646.38, 0.19,-0.54, 9.69, 4011
25.09, 101646.38, 0.23,-0.56, 9.64, 4016
25.09, 101646.38, 0.17,-0.56, 9.67, 4021
25.09, 101646.38, 0.17,-0.52, 9.66, 4026
25.09, 101646.38, 0.27,-0.56, 9.64, 4031
25.09, 101646.38, 0.27,-0.56, 9.64, 4036
25.09, 101646.38, 0.23,-0.59, 9.58, 4041
25.09, 101648.03, 0.21,-0.59, 9.58, 4046
25.09, 101648.03, 0.23,-0.59, 9.69, 4051
25.09, 101648.03, 0.23,-0.57, 9.66, 4056
25.09, 101648.03, 0.19,-0.50, 9.73, 4061
25.09, 101648.03, 0.23,-0.59, 9.58, 4066
25.09, 101648.03, 0.21,-0.50, 9.64, 4071
25.09, 101648.03, 0.27,-0.42, 9.52, 4076
25.09, 101645.56, 0.31,-0.56, 9.37, 4081
25.09, 101645.56, 0.23,-0.54, 9.69, 4086
25.09, 101645.56, 0.19,-0.65, 9.58, 4091
25.09, 101645.56, 0.23,-0.57, 9.58, 4096
25.09, 101645.56, 0.19,-0.59, 9.64, 4101
25.09, 101645.56, 0.23,-0.61, 9.66, 4106
25.09, 101645.56, 0.27,-0.61, 9.75, 4111
25.09, 101647.30, 0.27,-0.52, 9.64, 4116
25.09, 101647.30, 0.23,-0.54, 9.62, 4121
25.09, 101647.30, 0.27,-0.59, 9.64, 4126
25.09, 101647.30, 0.31,-0.57, 9.62, 4131
25.09, 101647.30, 0.15,-0.52, 9.64, 4136
25.09, 101647.30, 0.27,-0.54, 9.62, 4141
25.09, 101647.30, 0.25,-0.57, 9.56, 4146
25.09, 101647.86, 0.27,-0.54, 9.69, 4151
25.09, 101647.86, 0.15,-0.52, 9.66, 4156
25.09, 101647.86, 0.17,-0.54, 9.62, 4161
25.09, 101647.86, 0.15,-0.59, 9.66, 4166
25.09, 101647.86, 0.21,-0.61, 9.62, 4171
25.09, 101647.86, 0.25,-0.57, 9.66, 4176
25.09, 101647.86, 0.19,-0.61, 9.67, 4181
25.09, 101647.80, 0.31,-0.56, 9.60, 4186
25.09, 101647.80, 0.25,-0.61, 9.73, 4191
25.09, 101647.80, 0.25,-0.56, 9.60, 4196
25.09, 101647.80, 0.27,-0.57, 9.67, 4201
25.09, 101647.80, 0.29,-0.59, 9.56, 4206
25.09, 101647.80, 0.27,-0.59, 9.54, 4211
25.09, 101647.80, 0.25,-0.56, 9.48, 4216
25.09, 101643.95, 0.21,-0.57, 9.56, 4221
25.09, 101643.95, 0.29,-0.61, 9.60, 4226
25.09, 101643.95, 0.15,-0.61, 9.69, 4231
25.09, 101643.95, 0.23,-0.59, 9.69, 4236
25.09, 101643.95, 0.15,-0.63, 9.69, 4241
25.09, 101643.95, 0.19,-0.63, 9.69, 4246
25.09, 101643.95, 0.13,-0.56, 9.66, 4251
25.09, 101646.97, 0.17,-0.59, 9.67, 4259
25.09, 101646.97, 0.15,-0.57, 9.60, 4263
25.09, 101646.97, 0.17,-0.61, 9.66, 4268
25.09, 101646.97, 0.23,-0.65, 9.60, 4273
25.09, 101646.97, 0.21,-0.56, 9.69, 4278
25.09, 101646.97, 0.13,-0.56, 9.54, 4283
25.09, 101646.97, 0.23,-0.57, 9.58, 4288
25.09, 101646.80, 0.21,-0.52, 9.67, 4293
25.09, 101646.80, 0.23,-0.57, 9.79, 4298
25.09, 101646.80, 0.17,-0.44, 9.52, 4303
25.09, 101646.80, 0.19,-0.57, 9.75, 4308
25.09, 101646.80, 0.23,-0.59, 9.71, 4313
25.09, 101646.80, 0.33,-0.59, 9.60, 4318
25.09, 101646.80, 0.25,-0.59, 9.64, 4323
25.09, 101646.22, 0.23,-0.54, 9.67, 4328
25.09, 101646.22, 0.23,-0.63, 9.66, 4333
25.09, 101646.22, 0.25,-0.57, 9.66, 4338
25.09, 101646.22, 0.15,-0.61, 9.64, 4343
25.09, 101646.22, 0.21,-0.63, 9.64, 4348
25.09, 101646.22, 0.25,-0.59, 9.71, 4353
25.09, 101646.22, 0.23,-0.52, 9.58, 4358
25.09, 101645.61, 0.17,-0.50, 9.56, 4363
25.09, 101645.61, 0.23,-0.54, 9.62, 4368
25.09, 101645.61, 0.23,-0.57, 9.67, 4373
25.09, 101645.61, 0.23,-0.57, 9.62, 4378
25.09, 101645.61, 0.27,-0.57, 9.62, 4383
25.09, 101645.61, 0.21,-0.57, 9.73, 4388
25.09, 101645.61, 0.25,-0.54, 9.67, 4393
25.09, 101646.31, 0.25,-0.59, 9.62, 4398
25.09, 101646.31, 0.19,-0.50, 9.64, 4403
25.09, 101646.31, 0.25,-0.48, 9.62, 4408
25.09, 101646.31, 0.25,-0.54, 9.66, 4413
25.09, 101646.31, 0.19,-0.65, 9.60, 4418
25.09, 101646.31, 0.19,-0.50, 9.69, 4423
25.09, 101646.31, 0.21,-0.56, 9.60, 4428
25.09, 101647.04, 0.25,-0.54, 9.66, 4433
25.09, 101647.04, 0.23,-0.59, 9.56, 4438
25.09, 101647.04, 0.29,-0.63, 9.58, 4443
25.09, 101647.04, 0.27,-0.61, 9.60, 4448
25.09, 101647.04, 0.23,-0.57, 9.62, 4453
25.09, 101647.04, 0.17,-0.56, 9.48, 4458
25.09, 101647.04, 0.19,-0.61, 9.54, 4463
25.09, 101645.23, 0.23,-0.57, 9.64, 4468
25.09, 101645.23, 0.27,-0.59, 9.62, 4473
25.09, 101645.23, 0.23,-0.46, 9.66, 4478
25.09, 101645.23, 0.19,-0.56, 9.64, 4483
25.09, 101645.23, 0.19,-0.57, 9.64, 4488
25.09, 101645.23, 0.25,-0.56, 9.69, 4493
25.09, 101645.23, 0.21,-0.57, 9.64, 4498
25.09, 101646.03, 0.15,-0.61, 9.64, 4503
25.09, 101646.03, 0.15,-0.57, 9.64, 4508
25.09, 101646.03, 0.11,-0.57, 9.60, 4513
25.09, 101646.03, 0.17,-0.57, 9.58, 4518
25.09, 101646.03, 0.25,-0.52, 9.60, 4523
25.09, 101646.03, 0.29,-0.54, 9.60, 4528
25.09, 101646.03, 0.17,-0.54, 9.41, 4533
25.09, 101645.05, 0.21,-0.56, 9.64, 4538
25.09, 101645.05, 0.21,-0.50, 9.75, 4543
25.09, 101645.05, 0.23,-0.59, 9.58, 4548
25.09, 101645.05, 0.31,-0.57, 9.71, 4553
25.09, 101645.05, 0.27,-0.54, 9.71, 4558
25.09, 101645.05, 0.23,-0.54, 9.64, 4563
25.09, 101645.05, 0.19,-0.56, 9.62, 4568
25.09, 101645.05, 0.21,-0.57, 9.69, 4573
25.09, 101643.74, 0.25,-0.57, 9.69, 4578
25.09, 101643.74, 0.27,-0.57, 9.56, 4583
25.09, 101643.74, 0.25,-0.52, 9.58, 4588
25.09, 101643.74, 0.19,-0.54, 9.56, 4593
25.09, 101643.74, 0.25,-0.57, 9.56, 4598
25.09, 101643.74, 0.27,-0.54, 9.64, 4603
25.09, 101643.74, 0.19,-0.52, 9.66, 4608
25.09, 101645.23, 0.25,-0.54, 9.62, 4613
25.09, 101645.23, 0.21,-0.56, 9.69, 4618
25.09, 101645.23, 0.29,-0.54, 9.64, 4623
25.09, 101645.23, 0.21,-0.50, 9.62, 4628
25.09, 101645.23, 0.27,-0.52, 9.58, 4633
25.09, 101645.23, 0.29,-0.54, 9.67, 4638
25.09, 101645.23, 0.21,-0.54, 9.62, 4643
25.09, 101644.83, 0.19,-0.57, 9.69, 4648
25.09, 101644.83, 0.21,-0.65, 9.67, 4653
25.09, 101644.83, 0.25,-0.61, 9.71, 4658
25.09, 101644.83, 0.19,-0.57, 9.75, 4663
25.09, 101644.83, 0.19,-0.57, 9.64, 4668
25.09, 101644.83, 0.17,-0.57, 9.60, 4673
25.09, 101644.83, 0.21,-0.54, 9.52, 4678
25.09, 101647.03, 0.19,-0.52, 9.73, 4683
25.09, 101647.03, 0.27,-0.56, 9.69, 4688
25.09, 101647.03, 0.31,-0.52, 9.62, 4693
25.09, 101647.03, 0.34,-0.57, 9.58, 4698
25.09, 101647.03, 0.25,-0.59, 9.67, 4703
25.09, 101647.03, 0.21,-0.52, 9.62, 4708
25.09, 101647.03, 0.23,-0.56, 9.66, 4713
25.09, 101647.14, 0.25,-0.56, 9.67, 4718
25.09, 101647.14, 0.15,-0.57, 9.64, 4723
25.09, 101647.14, 0.27,-0.57, 9.67, 4728
25.09, 101647.14, 0.15,-0.50, 9.64, 4733
25.09, 101647.14, 0.23,-0.56, 9.64, 4738
25.09, 101647.14, 0.29,-0.52, 9.67, 4743
25.09, 101647.14, 0.29,-0.57, 9.67, 4748
25.09, 101645.66, 0.27,-0.57, 9.64, 4753
25.09, 101645.66, 0.21,-0.57, 9.67, 4765
25.09, 101645.66, 0.21,-0.57, 9.50, 4769
25.09, 101645.66, 0.25,-0.56, 9.56, 4774
25.09, 101645.66, 0.25,-0.56, 9.64, 4779
25.09, 101645.66, 0.31,-0.57, 9.60, 4784
25.09, 101646.97, 0.29,-0.56, 9.62, 4789
25.09, 101646.97, 0.29,-0.56, 9.64, 4794
25.09, 101646.97, 0.25,-0.59, 9.67, 4799
25.09, 101646.97, 0.27,-0.61, 9.64, 4804
25.09, 101646.97, 0.23,-0.57, 9.64, 4809
25.09, 101646.97, 0.31,-0.52, 9.66, 4814
25.09, 101646.97, 0.15,-0.56, 9.48, 4819
25.09, 101644.98, 0.21,-0.57, 9.85, 4824
25.09, 101644.98, 0.17,-0.57, 9.52, 4829
25.09, 101644.98, 0.15,-0.65, 9.46, 4834
25.09, 101644.98, 0.21,-0.65, 9.71, 4839
25.09, 101644.98, 0.19,-0.57, 9.67, 4844
25.09, 101644.98, 0.25,-0.61, 9.62, 4849
25.09, 101644.98, 0.31,-0.57, 9.64, 4854
25.09, 101648.29, 0.23,-0.61, 9.62, 4859
25.09, 101648.29, 0.31,-0.50, 9.62, 4864
25.09, 101648.29, 0.29,-0.54, 9.64, 4869
25.09, 101648.29, 0.21,-0.56, 9.60, 4874
25.09, 101648.29, 0.17,-0.54, 9.69, 4879
25.09, 101648.29, 0.19,-0.59, 9.62, 4884
25.09, 101648.29, 0.19,-0.52, 9.64, 4889
25.09, 101647.30, 0.23,-0.56, 9.69, 4894
25.09, 101647.30, 0.29,-0.54, 9.64, 4899
25.09, 101647.30, 0.27,-0.57, 9.60, 4904
25.09, 101647.30, 0.25,-0.52, 9.66, 4909
25.09, 101647.30, 0.23,-0.63, 9.64, 4914
25.09, 101647.30, 0.23,-0.59, 9.64, 4919
25.09, 101647.30, 0.23,-0.59, 9.64, 4924
25.09, 101645.39, 0.21,-0.65, 9.67, 4929
25.09, 101645.39, 0.27,-0.59, 9.67, 4934
25.09, 101645.39, 0.23,-0.57, 9.73, 4939
25.09, 101645.39, 0.25,-0.59, 9.79, 4944
25.09, 101645.39, 0.31,-0.54, 9.56, 4949
25.09, 101645.39, 0.15,-0.57, 9.67, 4954
25.09, 101645.39, 0.25,-0.52, 9.73, 4959
25.09, 101644.40, 0.25,-0.61, 9.60, 4964
25.09, 101644.40, 0.25,-0.56, 9.60, 4969
25.09, 101644.40, 0.21,-0.59, 9.58, 4974
25.09, 101644.40, 0.21,-0.57, 9.56, 4979
25.09, 101644.40, 0.19,-0.59, 9.67, 4984
25.09, 101644.40, 0.23,-0.59, 9.62, 4989
25.09, 101644.40, 0.25,-0.52, 9.67, 4994
25.09, 101644.40, 0.23,-0.57, 9.71, 4999
25.09, 101645.39, 0.17,-0.57, 9.64, 5004
25.09, 101645.39, 0.27,-0.54, 9.66, 5009
25.09, 101645.39, 0.25,-0.52, 9.62, 5014
25.09, 101645.39, 0.19,-0.56, 9.62, 5019
25.09, 101645.39, 0.23,-0.54, 9.66, 5024
25.09, 101645.39, 0.21,-0.56, 9.60, 5029
25.09, 101645.39, 0.21,-0.54, 9.64, 5034
25.09, 101643.25, 0.21,-0.56, 9.64, 5039
25.09, 101643.25, 0.25,-0.57, 9.60, 5044
25.09, 101643.25, 0.27,-0.63, 9.58, 5049
25.09, 101643.25, 0.23,-0.61, 9.69, 5054
25.09, 101643.25, 0.17,-0.63, 9.71, 5059
25.09, 101643.25, 0.17,-0.56, 9.64, 5064
25.09, 101643.25, 0.21,-0.50, 9.56, 5069
25.09, 101644.89, 0.23,-0.52, 9.71, 5074
25.09, 101644.89, 0.25,-0.54, 9.64, 5079
25.09, 101644.89, 0.19,-0.50, 9.75, 5084
25.09, 101644.89, 0.23,-0.59, 9.71, 5089
25.09, 101644.89, 0.33,-0.57, 9.67, 5094
25.09, 101644.89, 0.27,-0.57, 9.66, 5099
25.09, 101644.89, 0.27,-0.67, 9.73, 5104
25.09, 101648.02, 0.29,-0.63, 9.66, 5109
25.09, 101648.02, 0.27,-0.65, 9.56, 5114
25.09, 101648.02, 0.19,-0.61, 9.66, 5119
25.09, 101648.02, 0.23,-0.67, 9.69, 5124
25.09, 101648.02, 0.21,-0.57, 9.62, 5129
25.09, 101648.02, 0.25,-0.57, 9.60, 5134
25.09, 101648.02, 0.25,-0.56, 9.60, 5139
25.09, 101647.36, 0.27,-0.63, 9.60, 5144
25.09, 101647.36, 0.25,-0.59, 9.62, 5149
25.09, 101647.36, 0.25,-0.50, 9.66, 5154
25.09, 101647.36, 0.21,-0.56, 9.67, 5159
25.09, 101647.36, 0.17,-0.59, 9.71, 5164
25.09, 101647.36, 0.23,-0.61, 9.58, 5169
25.09, 101647.36, 0.21,-0.59, 9.71, 5174
25.09, 101642.75, 0.23,-0.52, 9.69, 5179
25.09, 101642.75, 0.25,-0.63, 9.71, 5184
25.09, 101642.75, 0.25,-0.63, 9.67, 5189
25.09, 101642.75, 0.25,-0.59, 9.85, 5194
25.09, 101642.75, 0.29,-0.57, 9.52, 5199
25.09, 101642.75, 0.29,-0.63, 9.75, 5204
25.09, 101642.75, 0.31,-0.56, 9.67, 5209
25.09, 101642.86, 0.27,-0.56, 9.69, 5214
25.09, 101642.86, 0.17,-0.56, 9.71, 5219
25.09, 101642.86, 0.23,-0.56, 9.71, 5224
25.09, 101642.86, 0.21,-0.52, 9.62, 5229
25.09, 101642.86, 0.21,-0.56, 9.62, 5234
25.09, 101642.86, 0.23,-0.54, 9.58, 5239
25.09, 101642.86, 0.21,-0.56, 9.67, 5244
25.09, 101645.98, 0.21,-0.59, 9.64, 5249
25.09, 101645.98, 0.23,-0.57, 9.62, 5254
25.09, 101645.98, 0.29,-0.56, 9.62, 5259
25.09, 101645.98, 0.25,-0.56, 9.71, 5269
25.09, 101645.98, 0.27,-0.54, 9.54, 5273
25.09, 101645.98, 0.23,-0.63, 9.77, 5278
25.09, 101645.32, 0.27,-0.52, 9.64, 5283
25.09, 101644.40, 0.27,-0.52, 9.81, 5288
25.09, 101644.40, 0.27,-0.52, 9.69, 5293
25.09, 101644.40, 0.27,-0.48, 9.71, 5298
25.09, 101644.40, 0.15,-0.50, 9.64, 5303
25.09, 101644.40, 0.21,-0.56, 9.67, 5308
25.09, 101644.40, 0.27,-0.54, 9.62, 5313
25.09, 101644.40, 0.19,-0.52, 9.69, 5318
25.09, 101644.66, 0.19,-0.54, 9.69, 5323
25.09, 101644.66, 0.19,-0.57, 9.60, 5328
25.09, 101644.66, 0.27,-0.52, 9.62, 5333
25.09, 101644.66, 0.27,-0.54, 9.66, 5338
25.09, 101644.66, 0.23,-0.57, 9.67, 5343
25.09, 101644.66, 0.25,-0.57, 9.58, 5348
25.09, 101644.66, 0.25,-0.52, 9.60, 5353
25.09, 101646.05, 0.23,-0.57, 9.66, 5358
25.09, 101646.05, 0.21,-0.54, 9.64, 5363
25.09, 101646.05, 0.15,-0.57, 9.66, 5368
25.09, 101646.05, 0.27,-0.59, 9.73, 5373
25.09, 101646.05, 0.27,-0.50, 9.62, 5378
25.09, 101646.05, 0.23,-0.59, 9.67, 5383
25.09, 101646.05, 0.21,-0.57, 9.62, 5388
25.09, 101647.86, 0.29,-0.59, 9.46, 5393
25.09, 101647.86, 0.27,-0.56, 9.56, 5398
25.09, 101647.86, 0.29,-0.54, 9.67, 5403
25.09, 101647.86, 0.19,-0.57, 9.66, 5408
25.09, 101647.86, 0.23,-0.54, 9.58, 5413
25.09, 101647.86, 0.23,-0.50, 9.67, 5418
25.09, 101647.86, 0.21,-0.54, 9.67, 5423
25.09, 101645.32, 0.23,-0.50, 9.66, 5428
25.09, 101645.32, 0.19,-0.54, 9.71, 5433
25.09, 101645.32, 0.21,-0.54, 9.62, 5438
25.09, 101645.32, 0.29,-0.56, 9.64, 5443
25.09, 101645.32, 0.23,-0.57, 9.64, 5448
25.09, 101645.32, 0.25,-0.52, 9.60, 5453
25.09, 101645.32, 0.25,-0.48, 9.64, 5458
25.09, 101646.38, 0.25,-0.57, 9.67, 5463
25.09, 101646.38, 0.27,-0.57, 9.64, 5468
25.09, 101646.38, 0.21,-0.59, 9.60, 5473
25.09, 101646.38, 0.21,-0.61, 9.66, 5478
25.09, 101646.38, 0.17,-0.57, 9.58, 5483
25.09, 101646.38, 0.23,-0.59, 9.66, 5488
25.09, 101646.38, 0.33,-0.59, 9.62, 5493
25.09, 101646.14, 0.23,-0.73, 9.64, 5498
25.09, 101646.14, 0.27,-0.65, 9.75, 5503
25.09, 101646.14, 0.19,-0.59, 9.62, 5508
25.09, 101646.14, 0.25,-0.56, 9.67, 5513
25.09, 101646.14, 0.21,-0.57, 9.46, 5518
25.09, 101646.14, 0.29,-0.57, 9.69, 5523
25.09, 101646.14, 0.25,-0.59, 9.69, 5528
25.09, 101648.29, 0.21,-0.57, 9.73, 5533
25.09, 101648.29, 0.27,-0.54, 9.67, 5538
25.09, 101648.29, 0.17,-0.59, 9.71, 5543
25.09, 101648.29, 0.21,-0.54, 9.71, 5548
25.09, 101648.29, 0.25,-0.56, 9.69, 5553
25.09, 101648.29, 0.25,-0.59, 9.64, 5558
25.09, 101648.29, 0.21,-0.59, 9.62, 5563
25.09, 101645.98, 0.23,-0.59, 9.67, 5568
25.09, 101645.98, 0.25,-0.56, 9.71, 5573
25.09, 101645.98, 0.25,-0.54, 9.66, 5578
25.09, 101645.98, 0.25,-0.54, 9.62, 5583
25.09, 101645.98, 0.27,-0.56, 9.58, 5588
25.09, 101645.98, 0.21,-0.50, 9.62, 5593
25.09, 101645.98, 0.23,-0.57, 9.60, 5598
25.09, 101643.08, 0.25,-0.59, 9.62, 5603
25.09, 101643.08, 0.27,-0.56, 9.69, 5608
25.09, 101643.08, 0.19,-0.65, 9.54, 5613
25.09, 101643.08, 0.25,-0.50, 9.54, 5618
25.09, 101643.08, 0.17,-0.56, 9.58, 5623
25.09, 101643.08, 0.21,-0.48, 9.52, 5628
25.09, 101643.08, 0.29,-0.52, 9.66, 5633
25.09, 101647.52, 0.21,-0.56, 9.67, 5638
25.09, 101647.52, 0.25,-0.57, 9.73, 5643
25.09, 101647.52, 0.25,-0.56, 9.41, 5648
25.09, 101647.52, 0.34,-0.56, 9.60, 5653
25.09, 101647.52, 0.25,-0.63, 9.60, 5658
25.09, 101647.52, 0.21,-0.63, 9.66, 5663
25.09, 101647.52, 0.19,-0.63, 9.67, 5668
25.09, 101647.52, 0.17,-0.61, 9.56, 5673
25.09, 101644.73, 0.17,-0.59, 9.60, 5678
25.09, 101644.73, 0.19,-0.54, 9.66, 5683
25.09, 101644.73, 0.21,-0.59, 9.60, 5688
25.09, 101644.73, 0.21,-0.54, 9.66, 5693
25.09, 101644.73, 0.21,-0.50, 9.64, 5698
25.09, 101644.73, 0.19,-0.59, 9.60, 5703
25.09, 101644.73, 0.13,-0.57, 9.60, 5708
25.09, 101644.89, 0.21,-0.63, 9.62, 5713
25.09, 101644.89, 0.25,-0.57, 9.60, 5718
25.09, 101644.89, 0.23,-0.50, 9.67, 5723
25.09, 101644.89, 0.27,-0.50, 9.62, 5728
25.09, 101644.89, 0.29,-0.52, 9.69, 5733
25.09, 101644.89, 0.33,-0.69, 9.60, 5738
25.09, 101644.89, 0.27,-0.44, 9.60, 5743
25.09, 101647.36, 0.21,-0.50, 9.66, 5748
25.09, 101647.36, 0.23,-0.54, 9.69, 5753
25.09, 101647.36, 0.23,-0.59, 9.69, 5758
25.09, 101647.36, 0.31,-0.46, 9.64, 5763
25.09, 101647.36, 0.23,-0.50, 9.58, 5771
25.09, 101647.36, 0.25,-0.52, 9.62, 5775
25.09, 101642.75, 0.27,-0.52, 9.58, 5780
25.09, 101642.75, 0.25,-0.59, 9.67, 5785
25.09, 101642.75, 0.25,-0.57, 9.64, 5790
25.09, 101642.75, 0.23,-0.52, 9.62, 5795
25.09, 101642.75, 0.23,-0.54, 9.67, 5800
25.09, 101642.75, 0.23,-0.59, 9.62, 5805
25.09, 101642.75, 0.25,-0.59, 9.62, 5810
25.09, 101642.75, 0.23,-0.59, 9.66, 5815
25.09, 101646.97, 0.21,-0.59, 9.67, 5820
25.09, 101646.97, 0.17,-0.52, 9.69, 5825
25.09, 101646.97, 0.15,-0.52, 9.64, 5830
25.09, 101646.97, 0.21,-0.46, 9.67, 5835
25.09, 101646.97, 0.31,-0.54, 9.77, 5840
25.09, 101646.97, 0.13,-0.57, 9.85, 5845
25.09, 101646.97, 0.25,-0.56, 9.43, 5850
25.09, 101647.20, 0.17,-0.52, 9.66, 5855
25.09, 101647.20, 0.25,-0.61, 9.56, 5860
25.09, 101647.20, 0.27,-0.57, 9.58, 5865
25.09, 101647.20, 0.27,-0.50, 9.71, 5870
25.09, 101647.20, 0.25,-0.52, 9.71, 5875
25.09, 101647.20, 0.25,-0.50, 9.60, 5880
25.09, 101647.20, 0.31,-0.56, 9.54, 5885
25.09, 101644.56, 0.27,-0.57, 9.66, 5890
25.09, 101644.56, 0.21,-0.59, 9.62, 5895
25.09, 101644.56, 0.19,-0.52, 9.62, 5900
25.09, 101644.56, 0.31,-0.56, 9.64, 5905
25.09, 101644.56, 0.19,-0.52, 9.62, 5910
25.09, 101644.56, 0.17,-0.54, 9.62, 5915
25.09, 101644.56, 0.21,-0.54, 9.64, 5920
25.09, 101644.56, 0.25,-0.54, 9.60, 5925
25.09, 101644.56, 0.25,-0.56, 9.66, 5930
25.09, 101644.56, 0.23,-0.52, 9.62, 5935
25.09, 101644.56, 0.21,-0.54, 9.62, 5940
25.09, 101644.56, 0.19,-0.52, 9.64, 5945
25.09, 101644.56, 0.25,-0.59, 9.66, 5950
25.09, 101644.56, 0.25,-0.57, 9.48, 5955
25.09, 101646.80, 0.31,-0.63, 9.69, 5960
25.09, 101646.80, 0.23,-0.59, 9.64, 5965
25.09, 101646.80, 0.21,-0.56, 9.62, 5970
25.09, 101646.80, 0.21,-0.59, 9.66, 5975
25.09, 101646.80, 0.21,-0.50, 9.71, 5980
25.09, 101646.80, 0.23,-0.59, 9.62, 5985
25.09, 101646.80, 0.31,-0.63, 9.56, 5990
25.09, 101645.50, 0.15,-0.61, 9.60, 5995
25.09, 101645.50, 0.29,-0.63, 9.64, 6000
25.09, 101645.50, 0.21,-0.52, 9.64, 6005
25.09, 101645.50, 0.23,-0.50, 9.69, 6010
25.09, 101645.50, 0.23,-0.56, 9.75, 6015
25.09, 101645.50, 0.19,-0.46, 9.69, 6020
25.09, 101645.50, 0.25,-0.56, 9.66, 6025
25.09, 101646.72, 0.21,-0.54, 9.66, 6030
25.09, 101646.72, 0.23,-0.54, 9.62, 6035
25.09, 101646.72, 0.25,-0.56, 9.64, 6040
25.09, 101646.72, 0.29,-0.59, 9.71, 6045
25.09, 101646.72, 0.25,-0.59, 9.64, 6050
25.09, 101646.72, 0.23,-0.59, 9.64, 6055
25.09, 101646.72, 0.19,-0.57, 9.56, 6060
25.09, 101645.66, 0.23,-0.54, 9.64, 6065
25.09, 101645.66, 0.19,-0.54, 9.62, 6070
25.09, 101645.66, 0.21,-0.56, 9.69, 6075
25.09, 101645.66, 0.27,-0.54, 9.54, 6080
25.09, 101645.66, 0.25,-0.50, 9.73, 6085
25.09, 101645.66, 0.23,-0.50, 9.54, 6090
25.09, 101645.66, 0.19,-0.61, 9.71, 6095
25.09, 101645.39, 0.25,-0.65, 9.56, 6100
25.09, 101645.39, 0.21,-0.59, 9.64, 6105
25.09, 101645.39, 0.25,-0.50, 9.69, 6110
25.09, 101645.39, 0.23,-0.44, 9.67, 6115
25.09, 101645.39, 0.19,-0.52, 9.62, 6120
25.09, 101645.39, 0.23,-0.52, 9.64, 6125
25.09, 101645.39, 0.27,-0.57, 9.71, 6130
25.09, 101648.02, 0.23,-0.63, 9.71, 6135
25.09, 101648.02, 0.23,-0.59, 9.67, 6140
25.09, 101648.02, 0.23,-0.50, 9.56, 6145
25.09, 101648.02, 0.25,-0.56, 9.75, 6150
25.09, 101648.02, 0.21,-0.52, 9.60, 6155
25.09, 101648.02, 0.29,-0.57, 9.66, 6160
25.09, 101648.02, 0.23,-0.54, 9.64, 6165
25.09, 101648.02, 0.23,-0.52, 9.67, 6170
25.09, 101648.18, 0.27,-0.46, 9.66, 6175
25.09, 101648.18, 0.15,-0.54, 9.71, 6180
25.09, 101648.18, 0.17,-0.54, 9.67, 6185
25.09, 101648.18, 0.21,-0.52, 9.66, 6190
25.09, 101648.18, 0.23,-0.52, 9.64, 6195
25.09, 101648.18, 0.25,-0.57, 9.54, 6200
25.09, 101648.18, 0.31,-0.52, 9.64, 6205
25.09, 101647.30, 0.25,-0.52, 9.60, 6210
25.09, 101647.30, 0.33,-0.48, 9.69, 6215
25.09, 101647.30, 0.31,-0.50, 9.60, 6220
25.09, 101647.30, 0.27,-0.59, 9.64, 6225
25.09, 101647.30, 0.21,-0.59, 9.64, 6230
25.09, 101647.30, 0.27,-0.46, 9.77, 6235
25.09, 101647.30, 0.23,-0.57, 9.69, 6240
25.09, 101644.83, 0.27,-0.52, 9.60, 6245
25.09, 101644.83, 0.23,-0.52, 9.69, 6250
25.09, 101644.83, 0.29,-0.61, 9.58, 6255
25.09, 101644.83, 0.27,-0.50, 9.67, 6260
25.09, 101644.83, 0.23,-0.54, 9.66, 6265
25.09, 101644.83, 0.27,-0.56, 9.62, 6273
25.09, 101646.05, 0.25,-0.56, 9.58, 6277
25.09, 101646.05, 0.23,-0.59, 9.64, 6282
25.09, 101646.05, 0.29,-0.57, 9.64, 6287
25.09, 101646.05, 0.19,-0.57, 9.60, 6292
25.09, 101646.05, 0.19,-0.59, 9.66, 6297
25.09, 101646.05, 0.25,-0.57, 9.64, 6302
25.09, 101646.05, 0.17,-0.65, 9.67, 6307
25.09, 101645.72, 0.25,-0.48, 9.60, 6312
25.09, 101647.52, 0.27,-0.56, 9.46, 6317
25.09, 101647.52, 0.23,-0.57, 9.64, 6322
25.09, 101647.52, 0.19,-0.61, 9.73, 6327
25.09, 101647.52, 0.21,-0.56, 9.77, 6332
25.09, 101647.52, 0.21,-0.56, 9.64, 6337
25.09, 101647.52, 0.27,-0.52, 9.64, 6342
25.09, 101647.52, 0.15,-0.54, 9.73, 6347
25.09, 101647.30, 0.21,-0.63, 9.60, 6352
25.09, 101647.30, 0.23,-0.61, 9.69, 6357
25.09, 101647.30, 0.21,-0.61, 9.64, 6362
25.09, 101647.30, 0.23,-0.57, 9.64, 6367
25.09, 101647.30, 0.21,-0.57, 9.66, 6372
25.09, 101647.30, 0.17,-0.52, 9.64, 6377
25.09, 101647.30, 0.23,-0.56, 9.64, 6382
25.09, 101645.48, 0.19,-0.56, 9.60, 6387
25.09, 101645.48, 0.29,-0.61, 9.64, 6392
25.09, 101645.48, 0.25,-0.57, 9.60, 6397
25.09, 101645.48, 0.21,-0.54, 9.66, 6402
25.09, 101645.48, 0.25,-0.54, 9.60, 6407
25.09, 101645.48, 0.25,-0.59, 9.67, 6412
25.09, 101645.48, 0.23,-0.56, 9.56, 6417
25.09, 101646.31, 0.25,-0.56, 9.66, 6422
25.09, 101646.31, 0.25,-0.56, 9.64, 6427
25.09, 101646.31, 0.19,-0.54, 9.73, 6432
25.09, 101646.31, 0.17,-0.54, 9.64, 6437
25.09, 101646.31, 0.15,-0.57, 9.66, 6442
25.09, 101646.31, 0.13,-0.57, 9.73, 6447
25.09, 101646.31, 0.19,-0.59, 9.56, 6452
25.09, 101644.34, 0.21,-0.54, 9.62, 6457
25.09, 101644.34, 0.23,-0.56, 9.66, 6462
25.09, 101644.34, 0.31,-0.56, 9.69, 6467
25.09, 101644.34, 0.23,-0.57, 9.66, 6472
25.09, 101644.34, 0.19,-0.57, 9.66, 6477
25.09, 101644.34, 0.25,-0.56, 9.69, 6482
25.09, 101644.34, 0.33,-0.52, 9.60, 6487
25.09, 101643.35, 0.33,-0.56, 9.60, 6492
25.09, 101643.35, 0.31,-0.56, 9.67, 6497
25.09, 101643.35, 0.25,-0.57, 9.62, 6502
25.09, 101643.35, 0.27,-0.59, 9.64, 6507
25.09, 101643.35, 0.23,-0.57, 9.66, 6512
25.09, 101643.35, 0.19,-0.52, 9.66, 6517
25.09, 101643.35, 0.21,-0.56, 9.60, 6522
25.09, 101647.47, 0.27,-0.54, 9.64, 6527
25.09, 101647.47, 0.21,-0.61, 9.64, 6532
25.09, 101647.47, 0.27,-0.52, 9.67, 6537
25.09, 101647.47, 0.19,-0.61, 9.69, 6542
25.09, 101647.47, 0.15,-0.57, 9.60, 6547
25.09, 101647.47, 0.19,-0.59, 9.60, 6552
25.09, 101647.47, 0.17,-0.61, 9.64, 6557
25.09, 101645.39, 0.31,-0.65, 9.73, 6562
25.09, 101645.39, 0.25,-0.52, 9.67, 6567
25.09, 101645.39, 0.25,-0.54, 9.69, 6572
25.09, 101645.39, 0.19,-0.61, 9.54, 6577
25.09, 101645.39, 0.25,-0.56, 9.67, 6582
25.09, 101645.39, 0.33,-0.54, 9.66, 6587
25.09, 101645.39, 0.23,-0.52, 9.62, 6592
25.09, 101645.44, 0.25,-0.59, 9.58, 6597
25.09, 101645.44, 0.29,-0.59, 9.66, 6602
25.09, 101645.44, 0.23,-0.54, 9.64, 6607
25.09, 101645.44, 0.25,-0.57, 9.62, 6612
25.09, 101645.44, 0.19,-0.54, 9.66, 6617
25.09, 101645.44, 0.27,-0.59, 9.64, 6622
25.09, 101645.44, 0.25,-0.59, 9.62, 6627
25.09, 101643.62, 0.25,-0.57, 9.67, 6632
25.09, 101643.62, 0.25,-0.59, 9.60, 6637
25.09, 101643.62, 0.19,-0.61, 9.60, 6642
25.09, 101643.62, 0.17,-0.57, 9.66, 6647
25.09, 101643.62, 0.27,-0.61, 9.67, 6652
25.09, 101643.62, 0.25,-0.57, 9.62, 6657
25.09, 101643.62, 0.19,-0.56, 9.66, 6662
25.09, 101646.66, 0.29,-0.63, 9.71, 6667
25.09, 101646.66, 0.23,-0.65, 9.69, 6672
25.09, 101646.66, 0.19,-0.59, 9.77, 6677
25.09, 101646.66, 0.13,-0.54, 9.67, 6682
25.09, 101646.66, 0.23,-0.52, 9.54, 6687
25.09, 101646.66, 0.29,-0.57, 9.62, 6692
25.09, 101646.66, 0.23,-0.56, 9.64, 6697
25.09, 101646.66, 0.31,-0.57, 9.66, 6702
25.09, 101646.88, 0.27,-0.54, 9.75, 6707
25.09, 101646.88, 0.19,-0.56, 9.75, 6712
25.09, 101646.88, 0.21,-0.57, 9.62, 6717
25.09, 101646.88, 0.21,-0.54, 9.60, 6722
25.09, 101646.88, 0.29,-0.54, 9.71, 6727
25.09, 101646.88, 0.27,-0.46, 9.75, 6732
25.09, 101646.88, 0.23,-0.61, 9.66, 6737
25.09, 101645.06, 0.21,-0.59, 9.62, 6742
25.09, 101645.06, 0.25,-0.54, 9.62, 6747
25.09, 101645.06, 0.25,-0.61, 9.60, 6752
25.09, 101645.06, 0.29,-0.59, 9.66, 6757
25.09, 101645.06, 0.29,-0.57, 9.64, 6762
25.09, 101645.06, 0.23,-0.59, 9.64, 6767
25.09, 101646.72, 0.25,-0.54, 9.64, 6775
25.09, 101646.72, 0.27,-0.56, 9.77, 6779
25.09, 101646.72, 0.23,-0.56, 9.71, 6784
25.09, 101646.72, 0.21,-0.52, 9.67, 6789
25.09, 101646.72, 0.29,-0.59, 9.64, 6794
25.09, 101646.72, 0.25,-0.54, 9.67, 6799
25.09, 101646.72, 0.21,-0.57, 9.60, 6804
25.09, 101646.88, 0.23,-0.54, 9.64, 6809
25.09, 101646.88, 0.19,-0.57, 9.64, 6814
25.09, 101646.88, 0.27,-0.59, 9.66, 6819
25.09, 101646.88, 0.25,-0.57, 9.62, 6824
25.09, 101646.88, 0.21,-0.56, 9.69, 6829
25.09, 101646.88, 0.25,-0.56, 9.64, 6834
25.09, 101646.88, 0.29,-0.59, 9.64, 6839
25.09, 101646.88, 0.23,-0.57, 9.66, 6844
25.09, 101646.38, 0.27,-0.57, 9.62, 6849
25.09, 101646.38, 0.23,-0.59, 9.60, 6854
25.09, 101646.38, 0.21,-0.59, 9.60, 6859
25.09, 101646.38, 0.17,-0.56, 9.62, 6864
25.09, 101646.38, 0.23,-0.57, 9.62, 6869
25.09, 101646.38, 0.23,-0.59, 9.50, 6874
25.09, 101646.38, 0.25,-0.56, 9.69, 6879
25.09, 101649.19, 0.23,-0.57, 9.60, 6884
25.09, 101649.19, 0.21,-0.65, 9.73, 6889
25.09, 101649.19, 0.27,-0.50, 9.69, 6894
25.09, 101649.19, 0.21,-0.52, 9.73, 6899
25.09, 101649.19, 0.19,-0.56, 9.50, 6904
25.09, 101649.19, 0.21,-0.59, 9.52, 6909
25.09, 101649.19, 0.19,-0.56, 9.64, 6914
25.09, 101646.22, 0.21,-0.54, 9.56, 6919
25.09, 101646.22, 0.27,-0.57, 9.62, 6924
25.09, 101646.22, 0.31,-0.57, 9.66, 6929
25.09, 101646.22, 0.27,-0.59, 9.64, 6934
25.09, 101646.22, 0.29,-0.59, 9.67, 6939
25.09, 101646.22, 0.25,-0.61, 9.64, 6944
25.09, 101646.22, 0.21,-0.59, 9.58, 6949
25.09, 101646.05, 0.25,-0.52, 9.58, 6954
25.09, 101646.05, 0.25,-0.59, 9.66, 6959
25.09, 101646.05, 0.21,-0.56, 9.66, 6964
25.09, 101646.05, 0.29,-0.59, 9.67, 6969
25.09, 101646.05, 0.19,-0.56, 9.69, 6974
25.09, 101646.05, 0.17,-0.54, 9.67, 6979
25.09, 101646.05, 0.25,-0.54, 9.64, 6984
25.09, 101645.23, 0.23,-0.57, 9.67, 6989
25.09, 101645.23, 0.27,-0.57, 9.64, 6994
25.09, 101645.23, 0.27,-0.63, 9.58, 6999
25.09, 101645.23, 0.23,-0.54, 9.58, 7004
25.09, 101645.23, 0.33,-0.59, 9.64, 7009
25.09, 101645.23, 0.21,-0.56, 9.66, 7014
25.09, 101645.23, 0.27,-0.56, 9.64, 7019
25.09, 101646.22, 0.23,-0.59, 9.50, 7024
25.09, 101646.22, 0.27,-0.59, 9.60, 7029
25.09, 101646.22, 0.29,-0.59, 9.64, 7034
25.09, 101646.22, 0.23,-0.59, 9.62, 7039
25.09, 101646.22, 0.23,-0.50, 9.60, 7044
25.09, 101646.22, 0.15,-0.63, 9.66, 7049
25.09, 101646.22, 0.19,-0.59, 9.66, 7054
25.09, 101644.45, 0.27,-0.56, 9.66, 7059
25.09, 101644.45, 0.27,-0.57, 9.69, 7064
25.09, 101644.45, 0.23,-0.56, 9.54, 7069
25.09, 101644.45, 0.23,-0.54, 9.67, 7074
25.09, 101644.45, 0.27,-0.50, 9.67, 7079
25.09, 101644.45, 0.21,-0.57, 9.62, 7084
25.09, 101644.45, 0.25,-0.59, 9.66, 7089
25.09, 101644.84, 0.21,-0.57, 9.67, 7094
25.09, 101644.84, 0.25,-0.56, 9.62, 7099
25.09, 101644.84, 0.27,-0.50, 9.60, 7104
25.09, 101644.84, 0.21,-0.56, 9.66, 7109
25.09, 101644.84, 0.23,-0.61, 9.67, 7114
25.09, 101644.84, 0.25,-0.54, 9.73, 7119
25.09, 101644.84, 0.23,-0.57, 9.56, 7124
25.09, 101644.95, 0.21,-0.59, 9.71, 7129
25.09, 101644.95, 0.21,-0.56, 9.46, 7134
25.09, 101644.95, 0.17,-0.54, 9.54, 7139
25.09, 101644.95, 0.21,-0.57, 9.73, 7144
25.09, 101644.95, 0.25,-0.56, 9.67, 7149
25.09, 101644.95, 0.27,-0.50, 9.69, 7154
25.09, 101644.95, 0.27,-0.54, 9.62, 7159
25.09, 101646.38, 0.27,-0.59, 9.69, 7164
25.09, 101646.38, 0.23,-0.56, 9.58, 7169
25.09, 101646.38, 0.23,-0.56, 9.64, 7174
25.09, 101646.38, 0.23,-0.59, 9.60, 7179
25.09, 101646.38, 0.27,-0.56, 9.62, 7184
25.09, 101646.38, 0.23,-0.56, 9.64, 7189
25.09, 101646.38, 0.17,-0.54, 9.69, 7194
25.09, 101647.04, 0.25,-0.59, 9.69, 7199
25.09, 101646.16, 0.29,-0.56, 9.69, 7204
25.09, 101646.16, 0.25,-0.46, 9.69, 7209
25.09, 101646.16, 0.23,-0.50, 9.62, 7214
25.09, 101646.16, 0.27,-0.52, 9.67, 7219
25.09, 101646.16, 0.25,-0.59, 9.66, 7224
25.09, 101646.16, 0.27,-0.61, 9.60, 7229
25.09, 101646.16, 0.21,-0.57, 9.64, 7234
25.09, 101645.50, 0.21,-0.65, 9.60, 7239
25.09, 101645.50, 0.31,-0.54, 9.64, 7244
25.09, 101645.50, 0.29,-0.57, 9.62, 7249
25.09, 101645.50, 0.33,-0.56, 9.60, 7254
25.09, 101645.50, 0.25,-0.59, 9.67, 7259
25.09, 101645.50, 0.29,-0.48, 9.71, 7264
25.09, 101645.50, 0.21,-0.57, 9.60, 7269
25.09, 101645.17, 0.23,-0.59, 9.60, 7277
25.09, 101645.17, 0.23,-0.56, 9.66, 7281
25.09, 101645.17, 0.17,-0.57, 9.66, 7286
25.09, 101645.17, 0.25,-0.61, 9.64, 7291
25.09, 101645.17, 0.27,-0.61, 9.66, 7296
25.09, 101645.17, 0.21,-0.56, 9.62, 7301
25.09, 101644.67, 0.23,-0.57, 9.62, 7306
25.09, 101644.67, 0.23,-0.52, 9.60, 7311
25.09, 101644.67, 0.19,-0.59, 9.64, 7316
25.09, 101644.67, 0.15,-0.59, 9.69, 7321
25.09, 101644.67, 0.23,-0.61, 9.64, 7326
25.09, 101644.67, 0.25,-0.65, 9.67, 7331
25.09, 101644.67, 0.23,-0.52, 9.67, 7336
25.09, 101643.80, 0.25,-0.59, 9.64, 7341
25.09, 101643.80, 0.23,-0.63, 9.66, 7346
25.09, 101643.80, 0.25,-0.59, 9.60, 7351
25.09, 101643.80, 0.23,-0.65, 9.52, 7356
25.09, 101643.80, 0.23,-0.61, 9.66, 7361
25.09, 101643.80, 0.25,-0.44, 9.75, 7366
25.09, 101643.80, 0.10,-0.54, 9.83, 7371
25.09, 101643.80, 0.25,-0.46, 9.71, 7376
25.09, 101643.95, 0.19,-0.52, 9.67, 7381
25.09, 101643.95, 0.29,-0.63, 9.66, 7386
25.09, 101643.95, 0.29,-0.50, 9.58, 7391
25.09, 101643.95, 0.25,-0.52, 9.60, 7396
25.09, 101643.95, 0.27,-0.54, 9.60, 7401
25.09, 101643.95, 0.25,-0.54, 9.58, 7406
25.09, 101643.95, 0.23,-0.57, 9.58, 7411
25.09, 101646.10, 0.27,-0.61, 9.62, 7416
25.09, 101646.10, 0.27,-0.59, 9.62, 7421
25.09, 101646.10, 0.21,-0.56, 9.69, 7426
25.09, 101646.10, 0.21,-0.57, 9.71, 7431
25.09, 101646.10, 0.25,-0.59, 9.71, 7436
25.09, 101646.10, 0.27,-0.56, 9.69, 7441
25.09, 101646.10, 0.21,-0.52, 9.69, 7446
25.09, 101645.44, 0.17,-0.56, 9.64, 7451
25.09, 101645.44, 0.29,-0.57, 9.71, 7456
25.09, 101645.44, 0.23,-0.71, 9.62, 7461
25.09, 101645.44, 0.25,-0.65, 9.56, 7466
25.09, 101645.44, 0.19,-0.65, 9.75, 7471
25.09, 101645.44, 0.23,-0.56, 9.60, 7476
25.09, 101645.44, 0.27,-0.57, 9.64, 7481
25.09, 101646.82, 0.23,-0.59, 9.67, 7486
25.09, 101646.82, 0.25,-0.56, 9.77, 7491
25.09, 101646.82, 0.19,-0.59, 9.56, 7496
25.09, 101646.82, 0.31,-0.59, 9.60, 7501
25.09, 101646.82, 0.19,-0.57, 9.60, 7506
25.09, 101646.82, 0.21,-0.57, 9.67, 7511
25.09, 101646.82, 0.25,-0.57, 9.66, 7516
25.09, 101646.21, 0.31,-0.57, 9.58, 7521
25.09, 101646.21, 0.33,-0.61, 9.58, 7526
25.09, 101646.21, 0.21,-0.54, 9.58, 7531
25.09, 101646.21, 0.25,-0.69, 9.60, 7536
25.09, 101646.21, 0.29,-0.59, 9.60, 7541
25.09, 101646.21, 0.27,-0.57, 9.64, 7546
25.09, 101646.21, 0.19,-0.50, 9.66, 7551
25.09, 101644.89, 0.21,-0.56, 9.64, 7556
25.09, 101644.89, 0.21,-0.56, 9.62, 7561
25.09, 101644.89, 0.23,-0.57, 9.64, 7566
25.09, 101644.89, 0.23,-0.59, 9.60, 7571
25.09, 101644.89, 0.23,-0.57, 9.64, 7576
25.09, 101644.89, 0.19,-0.52, 9.66, 7581
25.09, 101644.89, 0.21,-0.56, 9.71, 7586
25.09, 101646.92, 0.21,-0.57, 9.62, 7591
25.09, 101646.92, 0.25,-0.52, 9.71, 7596
25.09, 101646.92, 0.21,-0.59, 9.66, 7601
25.09, 101646.92, 0.21,-0.61, 9.69, 7606
25.09, 101646.92, 0.19,-0.59, 9.67, 7611
25.09, 101646.92, 0.17,-0.52, 9.71, 7616
25.09, 101646.92, 0.23,-0.54, 9.69, 7621
25.09, 101646.66, 0.19,-0.57, 9.52, 7626
25.09, 101646.66, 0.21,-0.61, 9.56, 7631
25.09, 101646.66, 0.19,-0.56, 9.56, 7636
25.09, 101646.66, 0.17,-0.59, 9.62, 7641
25.09, 101646.66, 0.15,-0.61, 9.66, 7646
25.09, 101646.66, 0.23,-0.57, 9.62, 7651
25.09, 101646.66, 0.17,-0.57, 9.67, 7656
25.09, 101648.74, 0.25,-0.57, 9.60, 7661
25.09, 101648.74, 0.31,-0.48, 9.62, 7666
25.09, 101648.74, 0.29,-0.48, 9.58, 7671
25.09, 101648.74, 0.31,-0.52, 9.60, 7676
25.09, 101648.74, 0.25,-0.54, 9.64, 7681
25.09, 101648.74, 0.25,-0.52, 9.64, 7686
25.09, 101648.74, 0.25,-0.52, 9.62, 7691
25.09, 101645.83, 0.23,-0.61, 9.66, 7696
25.09, 101645.83, 0.21,-0.57, 9.58, 7701
25.09, 101645.83, 0.27,-0.56, 9.54, 7706
25.09, 101645.83, 0.31,-0.52, 9.60, 7711
25.09, 101645.83, 0.23,-0.69, 9.64, 7716
25.09, 101645.83, 0.27,-0.56, 9.69, 7721
25.09, 101645.83, 0.23,-0.59, 9.45, 7726
25.09, 101645.83, 0.17,-0.52, 9.60, 7731
25.09, 101646.48, 0.25,-0.57, 9.56, 7736
25.09, 101646.48, 0.19,-0.59, 9.46, 7741
25.09, 101646.48, 0.23,-0.50, 9.73, 7746
25.09, 101646.48, 0.21,-0.56, 9.64, 7751
25.09, 101646.48, 0.25,-0.56, 9.54, 7756
25.09, 101646.48, 0.27,-0.57, 9.64, 7761
25.09, 101646.48, 0.27,-0.50, 9.60, 7766
25.09, 101647.14, 0.17,-0.61, 9.66, 7771
25.09, 101647.14, 0.25,-0.57, 9.64, 7781
25.09, 101647.14, 0.27,-0.56, 9.71, 7785
25.09, 101647.14, 0.23,-0.52, 9.48, 7790
25.09, 101647.14, 0.23,-0.54, 9.62, 7795
25.09, 101647.14, 0.23,-0.63, 9.62, 7800
25.09, 101646.00, 0.25,-0.50, 9.66, 7805
25.09, 101646.00, 0.23,-0.54, 9.46, 7810
25.09, 101646.00, 0.23,-0.54, 9.62, 7815
25.09, 101646.00, 0.31,-0.57, 9.46, 7820
25.09, 101646.00, 0.29,-0.57, 9.58, 7825
25.09, 101646.00, 0.25,-0.54, 9.73, 7830
25.09, 101646.00, 0.29,-0.54, 9.69, 7835
25.09, 101646.00, 0.27,-0.61, 9.75, 7840
25.09, 101646.00, 0.21,-0.57, 9.71, 7845
25.09, 101646.00, 0.23,-0.59, 9.64, 7850
25.09, 101646.00, 0.17,-0.56, 9.62, 7855
25.09, 101646.00, 0.23,-0.59, 9.58, 7860
25.09, 101646.00, 0.25,-0.54, 9.62, 7865
25.09, 101646.00, 0.25,-0.57, 9.60, 7870
25.09, 101644.62, 0.21,-0.57, 9.64, 7875
25.09, 101644.62, 0.21,-0.56, 9.64, 7880
25.09, 101644.62, 0.29,-0.52, 9.62, 7885
25.09, 101644.62, 0.27,-0.54, 9.60, 7890
25.09, 101644.62, 0.25,-0.56, 9.60, 7895
25.09, 101644.62, 0.21,-0.57, 9.64, 7900
25.09, 101644.62, 0.21,-0.54, 9.62, 7905
25.09, 101645.83, 0.21,-0.54, 9.64, 7910
25.09, 101645.83, 0.27,-0.50, 9.69, 7915
25.09, 101645.83, 0.31,-0.54, 9.52, 7920
25.09, 101645.83, 0.29,-0.48, 9.64, 7925
25.09, 101645.83, 0.21,-0.65, 9.54, 7930
25.09, 101645.83, 0.23,-0.34, 9.75, 7935
25.09, 101645.83, 0.21,-0.61, 9.67, 7940
25.09, 101646.05, 0.25,-0.63, 9.60, 7945
25.09, 101646.05, 0.29,-0.52, 9.67, 7950
25.09, 101646.05, 0.19,-0.61, 9.58, 7955
25.09, 101646.05, 0.23,-0.61, 9.54, 7960
25.09, 101646.05, 0.21,-0.63, 9.62, 7965
25.09, 101646.05, 0.21,-0.57, 9.67, 7970
25.09, 101646.05, 0.17,-0.56, 9.69, 7975
25.09, 101645.56, 0.15,-0.52, 9.66, 7980
25.09, 101645.56, 0.19,-0.56, 9.69, 7985
25.09, 101645.56, 0.19,-0.56, 9.67, 7990
25.09, 101645.56, 0.13,-0.57, 9.66, 7995
25.09, 101645.56, 0.13,-0.57, 9.66, 8000
25.09, 101645.56, 0.15,-0.56, 9.64, 8005
25.09, 101645.56, 0.17,-0.59, 9.66, 8010
25.09, 101647.04, 0.19,-0.59, 9.64, 8015
25.09, 101647.96, 0.19,-0.56, 9.64, 8020
25.09, 101647.96, 0.13,-0.56, 9.69, 8025
25.09, 101647.96, 0.23,-0.61, 9.60, 8030
25.09, 101647.96, 0.19,-0.54, 9.69, 8035
25.09, 101647.96, 0.31,-0.57, 9.56, 8040
25.09, 101647.96, 0.33,-0.46, 9.69, 8045
25.09, 101647.96, 0.29,-0.59, 9.67, 8050
25.09, 101646.22, 0.31,-0.57, 9.64, 8055
25.09, 101646.22, 0.25,-0.52, 9.66, 8060
25.09, 101646.22, 0.31,-0.54, 9.66, 8065
25.09, 101646.22, 0.33,-0.61, 9.67, 8070
25.09, 101646.22, 0.27,-0.57, 9.79, 8075
25.09, 101646.22, 0.19,-0.65, 9.73, 8080
25.09, 101646.22, 0.17,-0.61, 9.73, 8085
25.09, 101645.23, 0.25,-0.56, 9.64, 8090
25.09, 101645.23, 0.27,-0.54, 9.62, 8095
25.09, 101645.23, 0.23,-0.56, 9.69, 8100
25.09, 101645.23, 0.29,-0.52, 9.66, 8105
25.09, 101645.23, 0.25,-0.59, 9.64, 8110
25.09, 101645.23, 0.27,-0.57, 9.62, 8115
25.09, 101645.23, 0.27,-0.52, 9.60, 8120
25.09, 101645.72, 0.19,-0.52, 9.64, 8125
25.09, 101645.72, 0.21,-0.52, 9.69, 8130
25.09, 101645.72, 0.17,-0.52, 9.66, 8135
25.09, 101645.72, 0.23,-0.52, 9.66, 8140
25.09, 101645.72, 0.21,-0.52, 9.66, 8145
25.09, 101645.72, 0.19,-0.54, 9.64, 8150
25.09, 101645.72, 0.19,-0.57, 9.67, 8155
25.09, 101647.04, 0.21,-0.61, 9.67, 8160
25.09, 101647.04, 0.17,-0.56, 9.71, 8165
25.09, 101647.04, 0.19,-0.59, 9.75, 8170
25.09, 101647.04, 0.19,-0.52, 9.64, 8175
25.09, 101647.04, 0.13,-0.65, 9.67, 8180
25.09, 101647.04, 0.23,-0.67, 9.79, 8185
25.09, 101647.04, 0.21,-0.57, 9.67, 8190
25.09, 101645.39, 0.25,-0.59, 9.69, 8195
25.09, 101645.39, 0.23,-0.63, 9.39, 8200
25.09, 101645.39, 0.36,-0.61, 9.56, 8205
25.09, 101645.39, 0.25,-0.57, 9.69, 8210
25.09, 101645.39, 0.31,-0.59, 9.66, 8215
25.09, 101645.39, 0.25,-0.59, 9.66, 8220
25.09, 101645.39, 0.31,-0.57, 9.62, 8225
25.09, 101645.39, 0.25,-0.57, 9.58, 8230
25.09, 101645.39, 0.27,-0.59, 9.60, 8235
25.09, 101645.39, 0.23,-0.52, 9.62, 8240
25.09, 101645.39, 0.29,-0.54, 9.64, 8245
25.09, 101645.39, 0.25,-0.54, 9.62, 8250
25.09, 101645.39, 0.27,-0.57, 9.66, 8255
25.09, 101645.39, 0.23,-0.59, 9.67, 8260
25.09, 101645.89, 0.21,-0.56, 9.67, 8265
25.09, 101645.89, 0.15,-0.56, 9.60, 8270
25.09, 101645.89, 0.19,-0.54, 9.64, 8275
25.09, 101645.89, 0.27,-0.54, 9.60, 8283
25.09, 101645.89, 0.27,-0.50, 9.62, 8287
25.09, 101645.89, 0.23,-0.48, 9.69, 8292
25.09, 101645.89, 0.23,-0.56, 9.71, 8297
25.09, 101645.98, 0.23,-0.46, 9.69, 8302
25.09, 101645.98, 0.29,-0.56, 9.58, 8307
25.09, 101645.98, 0.29,-0.50, 9.66, 8312
25.09, 101645.98, 0.25,-0.59, 9.66, 8317
25.09, 101645.98, 0.27,-0.46, 9.60, 8322
25.09, 101645.98, 0.23,-0.54, 9.64, 8327
25.09, 101645.98, 0.21,-0.57, 9.67, 8332
25.09, 101646.31, 0.29,-0.59, 9.64, 8337
25.09, 101646.31, 0.21,-0.56, 9.64, 8342
25.09, 101646.31, 0.15,-0.56, 9.66, 8347
25.09, 101646.31, 0.25,-0.56, 9.67, 8352
25.09, 101646.31, 0.25,-0.56, 9.71, 8357
25.09, 101646.31, 0.29,-0.57, 9.64, 8362
25.09, 101646.31, 0.25,-0.59, 9.64, 8367
25.09, 101645.06, 0.25,-0.54, 9.69, 8372
25.09, 101645.06, 0.23,-0.56, 9.67, 8377
25.09, 101645.06, 0.21,-0.52, 9.64, 8382
25.09, 101645.06, 0.19,-0.56, 9.62, 8387
25.09, 101645.06, 0.23,-0.59, 9.64, 8392
25.09, 101645.06, 0.21,-0.63, 9.77, 8397
25.09, 101645.06, 0.17,-0.57, 9.50, 8402
25.09, 101646.80, 0.17,-0.65, 9.58, 8407
25.09, 101646.80, 0.25,-0.36, 9.62, 8412
25.09, 101646.80, 0.21,-0.54, 9.60, 8417
25.09, 101646.80, 0.19,-0.54, 9.69, 8422
25.09, 101646.80, 0.25,-0.54, 9.67, 8427
25.09, 101646.80, 0.25,-0.50, 9.69, 8432
25.09, 101646.80, 0.23,-0.59, 9.60, 8437
25.09, 101645.06, 0.19,-0.59, 9.58, 8442
25.09, 101645.06, 0.25,-0.54, 9.69, 8447
25.09, 101645.06, 0.27,-0.54, 9.66, 8452
25.09, 101645.06, 0.33,-0.52, 9.62, 8457
25.09, 101645.06, 0.25,-0.59, 9.62, 8462
25.09, 101645.06, 0.27,-0.52, 9.67, 8467
25.09, 101645.06, 0.21,-0.59, 9.62, 8472
25.09, 101645.56, 0.25,-0.56, 9.60, 8477
25.09, 101645.56, 0.25,-0.57, 9.64, 8482
25.09, 101645.56, 0.23,-0.54, 9.67, 8487
25.09, 101645.56, 0.25,-0.54, 9.66, 8492
25.09, 101645.56, 0.23,-0.59, 9.69, 8497
25.09, 101645.56, 0.23,-0.56, 9.67, 8502
25.09, 101645.56, 0.17,-0.56, 9.64, 8507
25.09, 101645.06, 0.33,-0.57, 9.69, 8512
25.09, 101645.06, 0.25,-0.50, 9.56, 8517
25.09, 101645.06, 0.25,-0.56, 9.62, 8522
25.09, 101645.06, 0.25,-0.54, 9.66, 8527
25.09, 101645.06, 0.23,-0.59, 9.58, 8532
25.09, 101645.06, 0.21,-0.52, 9.66, 8537
25.09, 101645.06, 0.27,-0.56, 9.71, 8542
25.09, 101645.06, 0.21,-0.52, 9.56, 8547
25.09, 101646.86, 0.21,-0.50, 9.60, 8552
25.09, 101646.86, 0.23,-0.57, 9.62, 8557
25.09, 101646.86, 0.25,-0.52, 9.62, 8562
25.09, 101646.86, 0.31,-0.61, 9.66, 8567
25.09, 101646.86, 0.29,-0.61, 9.60, 8572
25.09, 101646.86, 0.25,-0.57, 9.64, 8577
25.09, 101646.86, 0.27,-0.67, 9.62, 8582
25.09, 101645.06, 0.21,-0.57, 9.62, 8587
25.09, 101645.06, 0.27,-0.56, 9.75, 8592
25.09, 101645.06, 0.23,-0.52, 9.67, 8597
25.09, 101645.06, 0.19,-0.52, 9.64, 8602
25.09, 101645.06, 0.25,-0.54, 9.69, 8607
25.09, 101645.06, 0.21,-0.56, 9.71, 8612
25.09, 101645.06, 0.31,-0.54, 9.67, 8617
25.09, 101648.12, 0.21,-0.57, 9.64, 8622
25.09, 101648.12, 0.23,-0.56, 9.58, 8627
25.09, 101648.12, 0.23,-0.56, 9.54, 8632
25.09, 101648.12, 0.25,-0.56, 9.71, 8637
25.09, 101648.12, 0.21,-0.61, 9.64, 8642
25.09, 101648.12, 0.19,-0.54, 9.69, 8647
25.09, 101648.12, 0.25,-0.65, 9.75, 8652
25.09, 101648.67, 0.19,-0.61, 9.73, 8657
25.09, 101648.67, 0.23,-0.59, 9.62, 8662
25.09, 101648.67, 0.25,-0.52, 9.71, 8667
25.09, 101648.67, 0.23,-0.61, 9.62, 8672
25.09, 101648.67, 0.27,-0.57, 9.67, 8677
25.09, 101648.67, 0.23,-0.50, 9.71, 8682
25.09, 101648.67, 0.21,-0.59, 9.67, 8687
25.09, 101646.48, 0.27,-0.52, 9.67, 8692
25.09, 101646.48, 0.23,-0.44, 9.64, 8697
25.09, 101646.48, 0.31,-0.54, 9.69, 8702
25.09, 101646.48, 0.29,-0.56, 9.66, 8707
25.09, 101646.48, 0.23,-0.54, 9.71, 8712
25.09, 101646.48, 0.29,-0.54, 9.71, 8717
25.09, 101646.48, 0.23,-0.59, 9.66, 8722
25.09, 101644.51, 0.19,-0.59, 9.62, 8727
25.09, 101644.51, 0.21,-0.57, 9.60, 8732
25.09, 101644.51, 0.19,-0.57, 9.60, 8737
25.09, 101644.51, 0.19,-0.56, 9.60, 8742
25.09, 101644.51, 0.21,-0.54, 9.66, 8747
25.09, 101644.51, 0.23,-0.54, 9.58, 8752
25.09, 101644.51, 0.27,-0.54, 9.60, 8757
25.09, 101648.36, 0.13,-0.48, 9.43, 8762
25.09, 101648.36, 0.23,-0.54, 9.83, 8767
25.09, 101648.36, 0.21,-0.57, 9.45, 8772
25.09, 101648.36, 0.19,-0.50, 9.75, 8777
25.09, 101648.36, 0.27,-0.52, 9.60, 8788
25.09, 101648.36, 0.29,-0.52, 9.66, 8793
25.09, 101647.80, 0.27,-0.54, 9.64, 8798
25.09, 101647.80, 0.23,-0.52, 9.56, 8803
25.09, 101647.80, 0.25,-0.57, 9.58, 8808
25.09, 101647.80, 0.15,-0.59, 9.69, 8813
25.09, 101647.80, 0.15,-0.52, 9.66, 8818
25.09, 101647.80, 0.31,-0.57, 9.66, 8823
25.09, 101647.80, 0.27,-0.61, 9.58, 8828
25.09, 101646.20, 0.31,-0.59, 9.56, 8833
25.09, 101646.20, 0.23,-0.57, 9.54, 8838
25.09, 101646.20, 0.25,-0.61, 9.69, 8843
25.09, 101646.20, 0.33,-0.57, 9.69, 8848
25.09, 101646.20, 0.23,-0.54, 9.66, 8853
25.09, 101646.20, 0.21,-0.52, 9.56, 8858
25.09, 101646.20, 0.21,-0.48, 9.56, 8863
25.09, 101646.86, 0.31,-0.56, 9.54, 8868
25.09, 101646.86, 0.27,-0.54, 9.60, 8873
25.09, 101646.86, 0.23,-0.57, 9.66, 8878
25.09, 101646.86, 0.13,-0.54, 9.71, 8883
25.09, 101646.86, 0.19,-0.54, 9.67, 8888
25.09, 101646.86, 0.17,-0.54, 9.66, 8893
25.09, 101646.86, 0.21,-0.57, 9.64, 8898
25.09, 101646.05, 0.21,-0.57, 9.62, 8903
25.09, 101646.05, 0.29,-0.57, 9.58, 8908
25.09, 101646.05, 0.23,-0.63, 9.64, 8913
25.09, 101646.05, 0.21,-0.61, 9.66, 8918
25.09, 101646.05, 0.25,-0.57, 9.69, 8923
25.09, 101646.05, 0.21,-0.63, 9.50, 8928
25.09, 101646.05, 0.25,-0.57, 9.75, 8933
25.09, 101648.18, 0.25,-0.50, 9.54, 8938
25.09, 101648.18, 0.29,-0.48, 9.58, 8943
25.09, 101648.18, 0.23,-0.57, 9.58, 8948
25.09, 101648.18, 0.25,-0.61, 9.77, 8953
25.09, 101648.18, 0.23,-0.59, 9.66, 8958
25.09, 101648.18, 0.25,-0.59, 9.56, 8963
25.09, 101648.18, 0.27,-0.52, 9.60, 8968
25.09, 101645.88, 0.21,-0.54, 9.66, 8973
25.09, 101644.08, 0.23,-0.52, 9.66, 8978
25.09, 101644.08, 0.21,-0.54, 9.58, 8983
25.09, 101644.08, 0.23,-0.61, 9.56, 8988
25.09, 101644.08, 0.19,-0.57, 9.56, 8993
25.09, 101644.08, 0.17,-0.54, 9.62, 8998
25.09, 101644.08, 0.25,-0.54, 9.56, 9003
25.09, 101644.08, 0.19,-0.56, 9.66, 9008
25.09, 101647.86, 0.19,-0.57, 9.71, 9013
25.09, 101647.86, 0.13,-0.57, 9.69, 9018
25.09, 101647.86, 0.17,-0.57, 9.62, 9023
25.09, 101647.86, 0.23,-0.57, 9.66, 9028
25.09, 101647.86, 0.19,-0.54, 9.58, 9033
25.09, 101647.86, 0.25,-0.57, 9.66, 9038
25.09, 101647.86, 0.27,-0.54, 9.60, 9043
25.09, 101646.88, 0.27,-0.57, 9.50, 9048
25.09, 101646.88, 0.27,-0.59, 9.66, 9053
25.09, 101646.88, 0.25,-0.59, 9.81, 9058
25.09, 101646.88, 0.21,-0.52, 9.56, 9063
25.09, 101646.88, 0.27,-0.54, 9.67, 9068
25.09, 101646.88, 0.17,-0.50, 9.66, 9073
25.09, 101646.88, 0.25,-0.50, 9.66, 9078
25.09, 101646.64, 0.31,-0.54, 9.52, 9083
25.09, 101646.64, 0.23,-0.52, 9.54, 9088
25.09, 101646.64, 0.23,-0.50, 9.66, 9093
25.09, 101646.64, 0.25,-0.56, 9.67, 9098
25.09, 101646.64, 0.27,-0.61, 9.71, 9103
25.09, 101646.64, 0.19,-0.56, 9.73, 9108
25.09, 101646.64, 0.27,-0.54, 9.69, 9113
25.09, 101648.08, 0.21,-0.57, 9.69, 9118
25.09, 101648.08, 0.21,-0.56, 9.69, 9123
25.09, 101648.08, 0.17,-0.59, 9.62, 9128
25.09, 101648.08, 0.23,-0.57, 9.66, 9133
25.09, 101648.08, 0.25,-0.63, 9.66, 9138
25.09, 101648.08, 0.27,-0.57, 9.69, 9143
25.09, 101648.08, 0.15,-0.56, 9.66, 9148
25.09, 101646.70, 0.21,-0.52, 9.66, 9153
25.09, 101646.70, 0.19,-0.57, 9.62, 9158
25.09, 101646.70, 0.23,-0.56, 9.58, 9163
25.09, 101646.70, 0.21,-0.54, 9.66, 9168
25.09, 101646.70, 0.27,-0.59, 9.66, 9173
25.09, 101646.70, 0.25,-0.57, 9.71, 9178
25.09, 101646.70, 0.17,-0.54, 9.58, 9183
25.09, 101645.16, 0.23,-0.61, 9.67, 9188
25.09, 101645.16, 0.21,-0.65, 9.77, 9193
25.09, 101645.16, 0.25,-0.56, 9.62, 9198
25.09, 101645.16, 0.23,-0.50, 9.56, 9203
25.09, 101645.16, 0.31,-0.56, 9.60, 9208
25.09, 101645.16, 0.21,-0.63, 9.66, 9213
25.09, 101645.16, 0.21,-0.56, 9.67, 9218
25.09, 101645.16, 0.21,-0.57, 9.67, 9223
25.09, 101645.16, 0.17,-0.54, 9.54, 9228
25.09, 101645.16, 0.21,-0.52, 9.52, 9233
25.09, 101645.16, 0.21,-0.59, 9.64, 9238
25.09, 101645.16, 0.29,-0.59, 9.69, 9243
25.09, 101645.16, 0.27,-0.61, 9.67, 9248
25.09, 101645.16, 0.29,-0.52, 9.66, 9253
25.09, 101644.40, 0.27,-0.61, 9.66, 9258
25.09, 101644.40, 0.29,-0.63, 9.66, 9263
25.09, 101644.40, 0.23,-0.54, 9.71, 9268
25.09, 101644.40, 0.21,-0.52, 9.64, 9273
25.09, 101644.40, 0.27,-0.54, 9.64, 9278
25.09, 101644.40, 0.29,-0.59, 9.62, 9283
25.09, 101644.40, 0.27,-0.59, 9.60, 9291
25.09, 101646.38, 0.31,-0.56, 9.54, 9295
25.09, 101646.38, 0.27,-0.57, 9.58, 9300
25.09, 101646.38, 0.23,-0.54, 9.66, 9305
25.09, 101646.38, 0.25,-0.56, 9.64, 9310
25.09, 101646.38, 0.27,-0.54, 9.60, 9315
25.09, 101646.38, 0.23,-0.61, 9.62, 9320
25.09, 101646.38, 0.17,-0.54, 9.66, 9325
25.09, 101646.53, 0.11,-0.59, 9.54, 9330
25.09, 101646.53, 0.19,-0.61, 9.60, 9335
25.09, 101646.53, 0.21,-0.59, 9.66, 9340
25.09, 101646.53, 0.25,-0.57, 9.64, 9345
25.09, 101646.53, 0.23,-0.56, 9.62, 9350
25.09, 101646.53, 0.17,-0.50, 9.64, 9355
25.09, 101646.53, 0.25,-0.52, 9.58, 9360
25.09, 101644.73, 0.27,-0.57, 9.66, 9365
25.09, 101644.73, 0.31,-0.59, 9.67, 9370
25.09, 101644.73, 0.31,-0.63, 9.64, 9375
25.09, 101644.73, 0.27,-0.61, 9.67, 9380
25.09, 101644.73, 0.21,-0.59, 9.64, 9385
25.09, 101644.73, 0.15,-0.54, 9.66, 9390
25.09, 101644.73, 0.17,-0.59, 9.58, 9395
25.09, 101644.49, 0.19,-0.57, 9.62, 9400
25.09, 101644.49, 0.25,-0.54, 9.64, 9405
25.09, 101644.49, 0.23,-0.56, 9.62, 9410
25.09, 101644.49, 0.21,-0.59, 9.50, 9415
25.09, 101644.49, 0.17,-0.54, 9.60, 9420
25.09, 101644.49, 0.21,-0.57, 9.64, 9425
25.09, 101644.49, 0.25,-0.54, 9.79, 9430
25.09, 101646.31, 0.23,-0.50, 9.73, 9435
25.09, 101646.31, 0.31,-0.59, 9.69, 9440
25.09, 101646.31, 0.25,-0.56, 9.62, 9445
25.09, 101646.31, 0.21,-0.61, 9.58, 9450
25.09, 101646.31, 0.33,-0.61, 9.67, 9455
25.09, 101646.31, 0.21,-0.63, 9.66, 9460
25.09, 101646.31, 0.27,-0.63, 9.60, 9465
25.09, 101644.08, 0.27,-0.56, 9.58, 9470
25.09, 101644.08, 0.25,-0.56, 9.60, 9475
25.09, 101644.08, 0.25,-0.56, 9.64, 9480
25.09, 101644.08, 0.23,-0.59, 9.66, 9485
25.09, 101644.08, 0.29,-0.56, 9.67, 9490
25.09, 101644.08, 0.25,-0.54, 9.71, 9495
25.09, 101644.08, 0.17,-0.57, 9.71, 9500
25.09, 101644.08, 0.19,-0.57, 9.75, 9505
25.09, 101644.08, 0.27,-0.56, 9.73, 9510
25.09, 101644.08, 0.23,-0.59, 9.62, 9515
25.09, 101644.08, 0.13,-0.50, 9.54, 9520
25.09, 101644.08, 0.17,-0.52, 9.64, 9525
25.09, 101644.08, 0.21,-0.56, 9.54, 9530
25.09, 101644.08, 0.21,-0.52, 9.48, 9535
25.09, 101644.08, 0.17,-0.52, 9.60, 9540
25.09, 101647.52, 0.19,-0.48, 9.50, 9545
25.09, 101647.52, 0.15,-0.57, 9.54, 9550
25.09, 101647.52, 0.27,-0.57, 9.62, 9555
25.09, 101647.52, 0.17,-0.63, 9.62, 9560
25.09, 101647.52, 0.19,-0.48, 9.56, 9565
25.09, 101647.52, 0.15,-0.54, 9.69, 9570
25.09, 101647.52, 0.27,-0.63, 9.66, 9575
25.09, 101642.59, 0.29,-0.57, 9.62, 9580
25.09, 101642.59, 0.21,-0.44, 9.64, 9585
25.09, 101642.59, 0.25,-0.38, 9.67, 9590
25.09, 101642.59, 0.25,-0.52, 9.60, 9595
25.09, 101642.59, 0.25,-0.56, 9.64, 9600
25.09, 101642.59, 0.27,-0.59, 9.67, 9605
25.09, 101642.59, 0.25,-0.56, 9.66, 9610
25.09, 101645.39, 0.27,-0.56, 9.66, 9615
25.09, 101645.39, 0.27,-0.56, 9.66, 9620
25.09, 101645.39, 0.34,-0.56, 9.60, 9625
25.09, 101645.39, 0.27,-0.57, 9.66, 9630
25.09, 101645.39, 0.21,-0.59, 9.66, 9635
25.09, 101645.39, 0.25,-0.61, 9.62, 9640
25.09, 101645.39, 0.21,-0.61, 9.66, 9645
25.09, 101645.65, 0.25,-0.56, 9.64, 9650
25.09, 101645.65, 0.29,-0.63, 9.64, 9655
25.09, 101645.65, 0.25,-0.57, 9.60, 9660
25.09, 101645.65, 0.25,-0.54, 9.52, 9665
25.09, 101645.65, 0.23,-0.54, 9.54, 9670
25.09, 101645.65, 0.33,-0.50, 9.60, 9675
25.09, 101645.65, 0.23,-0.56, 9.62, 9680
25.09, 101644.49, 0.25,-0.56, 9.62, 9685
25.09, 101644.49, 0.29,-0.61, 9.60, 9690
25.09, 101644.49, 0.34,-0.57, 9.67, 9695
25.09, 101644.49, 0.25,-0.50, 9.62, 9700
25.09, 101644.49, 0.31,-0.59, 9.66, 9705
25.09, 101644.49, 0.21,-0.59, 9.66, 9710
25.09, 101644.49, 0.21,-0.54, 9.71, 9715
25.09, 101642.25, 0.31,-0.57, 9.77, 9720
25.09, 101642.25, 0.27,-0.52, 9.67, 9725
25.09, 101642.25, 0.19,-0.56, 9.62, 9730
25.09, 101642.25, 0.15,-0.52, 9.62, 9735
25.09, 101642.25, 0.21,-0.54, 9.64, 9740
25.09, 101642.25, 0.23,-0.56, 9.62, 9745
25.09, 101642.25, 0.17,-0.56, 9.58, 9750
25.09, 101642.59, 0.15,-0.57, 9.56, 9755
25.09, 101642.59, 0.21,-0.52, 9.75, 9760
25.09, 101642.59, 0.23,-0.56, 9.66, 9765
25.09, 101642.59, 0.23,-0.57, 9.45, 9770
25.09, 101642.59, 0.17,-0.52, 9.58, 9775
25.09, 101642.59, 0.27,-0.54, 9.52, 9780
25.09, 101642.59, 0.23,-0.59, 9.67, 9785
25.09, 101645.60, 0.25,-0.63, 9.62, 9793
25.09, 101645.60, 0.17,-0.54, 9.64, 9797
25.09, 101645.60, 0.21,-0.54, 9.62, 9802
25.09, 101645.60, 0.29,-0.57, 9.64, 9807
25.09, 101645.60, 0.25,-0.56, 9.60, 9812
25.09, 101645.60, 0.17,-0.52, 9.64, 9817
25.09, 101645.60, 0.23,-0.56, 9.58, 9822
25.09, 101643.50, 0.21,-0.57, 9.66, 9827
25.09, 101643.50, 0.21,-0.50, 9.62, 9832
25.09, 101643.50, 0.25,-0.63, 9.60, 9837
25.09, 101643.50, 0.29,-0.56, 9.66, 9842
25.09, 101643.50, 0.21,-0.54, 9.62, 9847
25.09, 101643.50, 0.21,-0.57, 9.60, 9852
25.09, 101643.50, 0.23,-0.54, 9.56, 9857
25.09, 101642.59, 0.27,-0.50, 9.46, 9862
25.09, 101642.59, 0.23,-0.50, 9.56, 9867
25.09, 101642.59, 0.27,-0.56, 9.73, 9872
25.09, 101642.59, 0.25,-0.56, 9.79, 9877
25.09, 101642.59, 0.25,-0.52, 9.73, 9882
25.09, 101642.59, 0.19,-0.59, 9.64, 9887
25.09, 101642.59, 0.15,-0.61, 9.67, 9892
25.09, 101644.55, 0.21,-0.63, 9.62, 9897
25.09, 101644.55, 0.17,-0.57, 9.58, 9902
25.09, 101644.55, 0.25,-0.61, 9.62, 9907
25.09, 101644.55, 0.19,-0.54, 9.54, 9912
25.09, 101644.55, 0.19,-0.59, 9.60, 9917
25.09, 101644.55, 0.19,-0.57, 9.60, 9922
25.09, 101644.55, 0.15,-0.56, 9.64, 9927
25.09, 101641.48, 0.23,-0.56, 9.58, 9932
25.09, 101641.48, 0.23,-0.57, 9.64, 9937
25.09, 101641.48, 0.23,-0.54, 9.64, 9942
25.09, 101641.48, 0.23,-0.52, 9.69, 9947
25.09, 101641.48, 0.27,-0.56, 9.71, 9952
25.09, 101641.48, 0.25,-0.59, 9.77, 9957
25.09, 101641.48, 0.29,-0.56, 9.66, 9962
25.09, 101644.40, 0.33,-0.59, 9.67, 9967
25.09, 101644.40, 0.27,-0.63, 9.45, 9972
25.09, 101644.40, 0.33,-0.59, 9.81, 9977
25.09, 101644.40, 0.27,-0.63, 9.67, 9982
25.09, 101644.40, 0.21,-0.46, 9.60, 9987
25.09, 101644.40, 0.23,-0.50, 9.58, 9992
25.09, 101644.40, 0.19,-0.52, 9.60, 9997
25.09, 101645.88, 0.25,-0.56, 9.69, 10002
25.09, 101645.88, 0.21,-0.50, 9.64, 10007
25.09, 101645.88, 0.29,-0.59, 9.60, 10012
25.09, 101645.88, 0.21,-0.46, 9.62, 10017
25.09, 101645.88, 0.27,-0.48, 9.64, 10022
25.09, 101645.88, 0.27,-0.52, 9.58, 10027
25.09, 101645.88, 0.15,-0.50, 9.62, 10032
25.09, 101645.88, 0.19,-0.56, 9.67, 10037
25.09, 101645.65, 0.21,-0.54, 9.64, 10042
25.09, 101645.65, 0.15,-0.57, 9.58, 10047
25.09, 101645.65, 0.19,-0.59, 9.58, 10052
25.09, 101645.65, 0.15,-0.61, 9.62, 10057
25.09, 101645.65, 0.19,-0.54, 9.67, 10062
25.09, 101645.65, 0.23,-0.57, 9.73, 10067
25.09, 101645.65, 0.25,-0.56, 9.69, 10072
25.09, 101646.53, 0.29,-0.54, 9.62, 10077
25.09, 101646.53, 0.23,-0.54, 9.64, 10082
25.09, 101646.53, 0.23,-0.56, 9.66, 10087
25.09, 101646.53, 0.27,-0.57, 9.54, 10092
25.09, 101646.53, 0.21,-0.56, 9.71, 10097
25.09, 101646.53, 0.25,-0.59, 9.66, 10102
25.09, 101646.53, 0.29,-0.67, 9.60, 10107
25.09, 101644.73, 0.25,-0.67, 9.60, 10112
25.09, 101644.73, 0.23,-0.56, 9.73, 10117
25.09, 101644.73, 0.29,-0.54, 9.58, 10122
25.09, 101644.73, 0.21,-0.54, 9.75, 10127
25.09, 101644.73, 0.29,-0.52, 9.69, 10132
25.09, 101644.73, 0.27,-0.56, 9.62, 10137
25.09, 101644.73, 0.27,-0.56, 9.58, 10142
25.09, 101644.16, 0.23,-0.59, 9.66, 10147
25.09, 101644.16, 0.29,-0.59, 9.71, 10152
25.09, 101644.16, 0.23,-0.56, 9.66, 10157
25.09, 101644.16, 0.21,-0.54, 9.62, 10162
25.09, 101644.16, 0.25,-0.56, 9.67, 10167
25.09, 101644.16, 0.21,-0.56, 9.66, 10172
25.09, 101644.16, 0.21,-0.52, 9.66, 10177
25.09, 101644.72, 0.19,-0.61, 9.62, 10182
25.09, 101644.72, 0.17,-0.57, 9.58, 10187
25.09, 101644.72, 0.23,-0.56, 9.62, 10192
25.09, 101644.72, 0.25,-0.57, 9.62, 10197
25.09, 101644.72, 0.19,-0.59, 9.69, 10202
25.09, 101644.72, 0.27,-0.59, 9.66, 10207
25.09, 101644.72, 0.23,-0.57, 9.69, 10212
25.09, 101645.54, 0.27,-0.65, 9.64, 10217
25.09, 101645.54, 0.23,-0.56, 9.64, 10222
25.09, 101645.54, 0.21,-0.52, 9.73, 10227
25.09, 101645.54, 0.25,-0.48, 9.66, 10232
25.09, 101645.54, 0.23,-0.54, 9.67, 10237
25.09, 101645.54, 0.19,-0.57, 9.64, 10242
25.09, 101645.54, 0.21,-0.57, 9.60, 10247
25.09, 101645.38, 0.23,-0.59, 9.71, 10252
25.09, 101645.38, 0.23,-0.59, 9.67, 10257
25.09, 101645.38, 0.31,-0.52, 9.67, 10262
25.09, 101645.38, 0.27,-0.61, 9.66, 10267
25.09, 101645.38, 0.27,-0.56, 9.69, 10272
25.09, 101645.38, 0.27,-0.56, 9.60, 10277
25.09, 101645.38, 0.27,-0.48, 9.69, 10282
25.09, 101642.25, 0.27,-0.52, 9.60, 10287
25.09, 101642.25, 0.25,-0.57, 9.62, 10294
25.09, 101642.25, 0.13,-0.65, 9.66, 10298
25.09, 101642.25, 0.19,-0.61, 9.73, 10303
25.09, 101642.25, 0.23,-0.57, 9.52, 10308
25.09, 101642.25, 0.21,-0.50, 9.69, 10313
25.09, 101642.25, 0.23,-0.54, 9.66, 10318
25.09, 101646.03, 0.19,-0.57, 9.66, 10323
25.09, 101646.03, 0.27,-0.52, 9.60, 10328
25.09, 101646.03, 0.13,-0.61, 9.62, 10333
25.09, 101646.03, 0.23,-0.56, 9.64, 10338
25.09, 101646.03, 0.19,-0.65, 9.71, 10343
25.09, 101646.03, 0.25,-0.59, 9.66, 10348
25.09, 101646.03, 0.21,-0.48, 9.71, 10353
25.09, 101642.59, 0.15,-0.52, 9.71, 10358
25.09, 101642.59, 0.15,-0.52, 9.73, 10363
25.09, 101642.59, 0.21,-0.59, 9.66, 10368
25.09, 101642.59, 0.21,-0.59, 9.64, 10373
25.09, 101642.59, 0.25,-0.56, 9.56, 10378
25.09, 101642.59, 0.23,-0.56, 9.66, 10383
25.09, 101642.59, 0.27,-0.54, 9.62, 10388
25.09, 101644.49, 0.19,-0.54, 9.60, 10393
25.09, 101644.49, 0.25,-0.46, 9.66, 10398
25.09, 101644.49, 0.29,-0.61, 9.54, 10403
25.09, 101644.49, 0.23,-0.48, 9.67, 10408
25.09, 101644.49, 0.27,-0.46, 9.66, 10413
25.09, 101644.49, 0.23,-0.52, 9.66, 10418
25.09, 101644.49, 0.29,-0.50, 9.66, 10423
25.09, 101645.39, 0.25,-0.59, 9.71, 10428
25.09, 101645.39, 0.27,-0.57, 9.69, 10433
25.09, 101645.39, 0.17,-0.61, 9.58, 10438
25.09, 101645.39, 0.27,-0.57, 9.54, 10443
25.09, 101645.39, 0.29,-0.56, 9.64, 10448
25.09, 101645.39, 0.23,-0.54, 9.67, 10453
25.09, 101645.39, 0.29,-0.56, 9.60, 10458
25.09, 101645.39, 0.25,-0.57, 9.69, 10463
25.09, 101645.39, 0.29,-0.56, 9.60, 10468
25.09, 101645.39, 0.31,-0.61, 9.71, 10473
25.09, 101645.39, 0.34,-0.56, 9.67, 10478
25.09, 101645.39, 0.29,-0.52, 9.62, 10483
25.09, 101645.39, 0.31,-0.57, 9.62, 10488
25.09, 101645.39, 0.29,-0.50, 9.62, 10493
25.09, 101645.39, 0.29,-0.57, 9.56, 10498
25.09, 101643.91, 0.48,-0.50, 9.52, 10503
25.09, 101643.91, 0.61,-0.40, 9.43, 10508
25.09, 101643.91, 0.63,-0.38, 9.46, 10513
25.09, 101643.91, 0.52,-0.50, 9.60, 10518
25.09, 101643.91, 0.48,-0.59, 9.83, 10523
25.09, 101643.91, 0.56,-0.63, 9.77, 10528
25.09, 101643.91, 0.56,-0.77, 9.81, 10533
25.09, 101644.49, 0.48,-0.63, 9.71, 10538
25.09, 101644.49, 0.33,-0.65, 9.85, 10543
25.09, 101644.49, 0.19,-0.59, 9.45, 10548
25.09, 101644.49, 0.17,-0.48, 9.43, 10553
25.09, 101644.49, 0.10,-0.44, 9.33, 10558
25.09, 101644.49, 0.04,-0.50, 9.48, 10563
25.09, 101644.49, 0.10,-0.46, 9.64, 10568
25.09, 101645.06, 0.04,-0.67, 9.87, 10573
25.09, 101645.06, 0.04,-0.61, 10.00, 10578
25.09, 101645.06, 0.00,-0.67, 9.64, 10583
25.09, 101645.06, -0.02,-0.63, 9.45, 10588
25.09, 101645.06, -0.10,-0.65, 9.54, 10593
25.09, 101645.06, -0.02,-0.71, 9.71, 10598
25.09, 101645.06, -0.02,-0.71, 9.67, 10603
25.09, 101643.91, -0.08,-0.63, 9.75, 10608
25.09, 101643.91, -0.02,-0.59, 9.67, 10613
25.09, 101643.91, -0.06,-0.50, 9.64, 10618
25.09, 101643.91, -0.06,-0.50, 9.62, 10623
25.09, 101643.91, 0.08,-0.54, 9.62, 10628
25.09, 101643.91, 0.06,-0.63, 9.75, 10633
25.09, 101643.91, 0.17,-0.67, 9.79, 10638
25.09, 101642.97, 0.31,-0.59, 9.73, 10643
25.09, 101642.97, 0.19,-0.67, 9.62, 10648
25.09, 101642.97, 0.34,-0.57, 9.48, 10653
25.09, 101642.97, 0.29,-0.61, 9.50, 10658
25.09, 101642.97, 0.25,-0.56, 9.52, 10663
25.09, 101642.97, 0.31,-0.61, 9.58, 10668
25.09, 101642.97, 0.27,-0.59, 9.56, 10673
25.09, 101644.40, 0.38,-0.56, 9.83, 10678
25.09, 101644.40, 0.33,-0.46, 9.69, 10683
25.09, 101644.40, 0.44,-0.56, 9.69, 10688
25.09, 101644.40, 0.34,-0.50, 9.56, 10693
25.09, 101644.40, 0.38,-0.56, 9.64, 10698
25.09, 101644.40, 0.34,-0.59, 9.66, 10703
25.09, 101644.40, 0.31,-0.50, 9.58, 10708
25.09, 101643.74, 0.38,-0.56, 9.50, 10713
25.09, 101643.74, 0.42,-0.59, 9.50, 10718
25.09, 101643.74, 0.38,-0.56, 9.54, 10723
25.09, 101643.74, 0.36,-0.59, 9.58, 10728
25.09, 101643.74, 0.36,-0.57, 9.66, 10733
25.09, 101643.74, 0.33,-0.63, 9.67, 10738
25.09, 101643.74, 0.34,-0.52, 9.71, 10743
25.09, 101644.66, 0.29,-0.50, 9.67, 10748
25.09, 101644.66, 0.27,-0.52, 9.71, 10753
25.09, 101644.66, 0.27,-0.56, 9.64, 10758
25.09, 101644.66, 0.27,-0.52, 9.62, 10763
25.09, 101644.66, 0.15,-0.54, 9.45, 10768
25.09, 101644.66, 0.13,-0.63, 9.64, 10773
25.09, 101644.66, 0.19,-0.57, 9.69, 10778
25.09, 101644.16, 0.23,-0.61, 9.60, 10783
25.09, 101644.16, 0.21,-0.61, 9.71, 10788
25.09, 101644.16, 0.21,-0.54, 9.67, 10796
25.09, 101644.16, 0.21,-0.61, 9.71, 10800
25.09, 101644.16, 0.21,-0.56, 9.73, 10805
25.09, 101644.16, 0.19,-0.52, 9.64, 10810
25.09, 101644.16, 0.27,-0.57, 9.69, 10815
25.09, 101645.38, 0.21,-0.56, 9.62, 10820
25.09, 101645.38, 0.25,-0.54, 9.66, 10825
25.09, 101645.38, 0.27,-0.52, 9.60, 10830
25.09, 101645.38, 0.25,-0.57, 9.62, 10835
25.09, 101645.38, 0.29,-0.61, 9.67, 10840
25.09, 101645.38, 0.17,-0.54, 9.71, 10845
25.09, 101645.38, 0.23,-0.61, 9.66, 10850
25.09, 101642.92, 0.25,-0.61, 9.69, 10855
25.09, 101642.92, 0.19,-0.59, 9.73, 10860
25.09, 101642.92, 0.17,-0.52, 9.71, 10865
25.09, 101642.92, 0.25,-0.44, 9.71, 10870
25.09, 101642.92, 0.27,-0.52, 9.52, 10875
25.09, 101642.92, 0.33,-0.57, 9.69, 10880
25.09, 101642.92, 0.27,-0.54, 9.48, 10885
25.09, 101647.58, 0.27,-0.57, 9.77, 10890
25.09, 101647.58, 0.31,-0.50, 9.54, 10895
25.09, 101647.58, 0.23,-0.67, 9.66, 10900
25.09, 101647.58, 0.21,-0.59, 9.62, 10905
25.09, 101647.58, 0.31,-0.54, 9.75, 10910
25.09, 101647.58, 0.25,-0.50, 9.67, 10915
25.09, 101647.58, 0.27,-0.59, 9.60, 10920
25.09, 101642.19, 0.17,-0.52, 9.67, 10925
25.09, 101642.19, 0.19,-0.50, 9.67, 10930
25.09, 101642.19, 0.25,-0.48, 9.58, 10935
25.09, 101642.19, 0.21,-0.50, 9.54, 10940
25.09, 101642.19, 0.27,-0.57, 9.66, 10945
25.09, 101642.19, 0.25,-0.59, 9.60, 10950
25.09, 101642.19, 0.25,-0.57, 9.60, 10955
25.09, 101643.06, 0.23,-0.56, 9.67, 10960
25.09, 101643.06, 0.21,-0.54, 9.56, 10965
25.09, 101643.06, 0.23,-0.56, 9.60, 10970
25.09, 101643.06, 0.17,-0.48, 9.60, 10975
25.09, 101643.06, 0.11,-0.50, 9.62, 10980
25.09, 101643.06, 0.21,-0.57, 9.64, 10985
25.09, 101643.06, 0.21,-0.57, 9.64, 10990
25.09, 101643.06, 0.25,-0.57, 9.60, 10995
25.09, 101645.38, 0.21,-0.44, 9.64, 11000
25.09, 101645.38, 0.29,-0.52, 9.66, 11005
25.09, 101645.38, 0.27,-0.57, 9.50, 11010
25.09, 101645.38, 0.27,-0.57, 9.67, 11015
25.09, 101645.38, 0.29,-0.57, 9.66, 11020
25.09, 101645.38, 0.25,-0.54, 9.58, 11025
25.09, 101645.38, 0.31,-0.54, 9.60, 11030
25.09, 101646.97, 0.29,-0.50, 9.56, 11035
25.09, 101646.97, 0.40,-0.56, 9.62, 11040
25.09, 101646.97, 0.38,-0.50, 9.64, 11045
25.09, 101646.97, 0.29,-0.50, 9.67, 11050
25.09, 101646.97, 0.31,-0.50, 9.64, 11055
25.09, 101646.97, 0.29,-0.57, 9.69, 11060
25.09, 101646.97, 0.27,-0.61, 9.69, 11065
25.09, 101644.08, 0.25,-0.59, 9.56, 11070
25.09, 101644.08, 0.23,-0.56, 9.64, 11075
25.09, 101644.08, 0.27,-0.56, 9.62, 11080
25.09, 101644.08, 0.27,-0.56, 9.62, 11085
25.09, 101644.08, 0.17,-0.56, 9.64, 11090
25.09, 101644.08, 0.17,-0.52, 9.64, 11095
25.09, 101644.08, 0.17,-0.56, 9.67, 11100
25.09, 101647.58, 0.23,-0.57, 9.66, 11105
25.09, 101647.58, 0.19,-0.56, 9.66, 11110
25.09, 101647.58, 0.15,-0.61, 9.66, 11115
25.09, 101647.58, 0.21,-0.57, 9.66, 11120
25.09, 101647.58, 0.21,-0.54, 9.67, 11125
25.09, 101647.58, 0.25,-0.52, 9.62, 11130
25.09, 101647.58, 0.23,-0.59, 9.66, 11135
25.09, 101647.20, 0.21,-0.61, 9.52, 11140
25.09, 101647.20, 0.27,-0.57, 9.56, 11145
25.09, 101647.20, 0.29,-0.59, 9.71, 11150
25.09, 101647.20, 0.27,-0.61, 9.66, 11155
25.09, 101647.20, 0.33,-0.61, 9.46, 11160
25.09, 101647.20, 0.29,-0.57, 9.56, 11165
25.09, 101647.20, 0.25,-0.57, 9.66, 11170
25.09, 101645.54, 0.31,-0.59, 9.62, 11175
25.09, 101645.54, 0.27,-0.54, 9.54, 11180
25.09, 101645.54, 0.21,-0.63, 9.58, 11185
25.09, 101645.54, 0.23,-0.57, 9.56, 11190
25.09, 101645.54, 0.21,-0.56, 9.54, 11195
25.09, 101645.54, 0.23,-0.56, 9.54, 11200
25.09, 101645.54, 0.31,-0.56, 9.62, 11205
25.09, 101646.03, 0.31,-0.56, 9.66, 11210
25.09, 101646.03, 0.27,-0.56, 9.62, 11215
25.09, 101646.03, 0.25,-0.57, 9.67, 11220
25.09, 101646.03, 0.25,-0.61, 9.67, 11225
25.09, 101646.03, 0.25,-0.57, 9.67, 11230
25.09, 101646.03, 0.25,-0.57, 9.62, 11235
25.09, 101646.03, 0.27,-0.59, 9.60, 11240
25.09, 101644.00, 0.15,-0.56, 9.60, 11245
25.09, 101644.00, 0.21,-0.61, 9.56, 11250
25.09, 101644.00, 0.21,-0.56, 9.66, 11255
25.09, 101644.00, 0.29,-0.61, 9.69, 11260
25.09, 101644.00, 0.10,-0.52, 9.64, 11265
25.09, 101644.00, 0.21,-0.54, 9.66, 11270
25.09, 101644.00, 0.13,-0.56, 9.79, 11275
25.09, 101647.36, 0.15,-0.56, 9.73, 11280
25.09, 101647.36, 0.13,-0.59, 9.69, 11285
25.09, 101647.36, 0.21,-0.61, 9.66, 11290
25.09, 101647.36, 0.17,-0.50, 9.58, 11298
25.09, 101647.36, 0.17,-0.57, 9.58, 11303
25.09, 101647.36, 0.15,-0.56, 9.58, 11307
25.09, 101647.36, 0.19,-0.54, 9.62, 11312
25.09, 101647.52, 0.11,-0.56, 9.62, 11317
25.09, 101647.52, 0.19,-0.61, 9.69, 11322
25.09, 101647.52, 0.23,-0.59, 9.64, 11327
25.09, 101647.52, 0.19,-0.59, 9.62, 11332
25.09, 101647.52, 0.19,-0.48, 9.60, 11337
25.09, 101647.52, 0.25,-0.48, 9.66, 11342
25.09, 101647.52, 0.13,-0.54, 9.62, 11347
25.09, 101647.03, 0.17,-0.61, 9.66, 11352
25.09, 101647.03, 0.23,-0.59, 9.56, 11357
25.09, 101647.03, 0.27,-0.56, 9.66, 11362
25.09, 101647.03, 0.21,-0.54, 9.71, 11367
25.09, 101647.03, 0.21,-0.57, 9.58, 11372
25.09, 101647.03, 0.11,-0.59, 9.67, 11377
25.09, 101647.03, 0.25,-0.50, 9.62, 11382
25.09, 101647.20, 0.13,-0.50, 9.56, 11387
25.09, 101647.20, 0.23,-0.59, 9.64, 11392
25.09, 101647.20, 0.25,-0.63, 9.62, 11397
25.09, 101647.20, 0.27,-0.61, 9.62, 11402
25.09, 101647.20, 0.29,-0.48, 9.58, 11407
25.09, 101647.20, 0.23,-0.52, 9.54, 11412
25.09, 101647.20, 0.31,-0.50, 9.64, 11417
25.09, 101646.31, 0.27,-0.50, 9.67, 11422
25.09, 101646.31, 0.23,-0.57, 9.66, 11427
25.09, 101646.31, 0.21,-0.52, 9.64, 11432
25.09, 101646.31, 0.21,-0.52, 9.60, 11437
25.09, 101646.31, 0.29,-0.48, 9.54, 11442
25.09, 101646.31, 0.31,-0.54, 9.62, 11447
25.09, 101646.31, 0.23,-0.50, 9.64, 11452
25.09, 101647.69, 0.21,-0.59, 9.67, 11457
25.09, 101647.69, 0.25,-0.56, 9.69, 11462
25.09, 101647.69, 0.23,-0.61, 9.60, 11467
25.09, 101647.69, 0.29,-0.50, 9.52, 11472
25.09, 101647.69, 0.29,-0.54, 9.60, 11477
25.09, 101647.69, 0.27,-0.57, 9.60, 11482
25.09, 101647.69, 0.27,-0.61, 9.64, 11487
25.09, 101646.80, 0.23,-0.59, 9.69, 11492
25.09, 101646.80, 0.23,-0.52, 9.52, 11497
25.09, 101646.80, 0.19,-0.56, 9.54, 11502
25.09, 101646.80, 0.23,-0.54, 9.67, 11507
25.09, 101646.80, 0.17,-0.59, 9.67, 11512
25.09, 101646.80, 0.15,-0.57, 9.69, 11517
25.09, 101646.80, 0.13,-0.59, 9.64, 11522
25.09, 101646.80, 0.19,-0.57, 9.62, 11527
25.09, 101648.29, 0.15,-0.56, 9.60, 11532
25.09, 101648.29, 0.13,-0.61, 9.69, 11537
25.09, 101648.29, 0.23,-0.63, 9.69, 11542
25.09, 101648.29, 0.29,-0.59, 9.64, 11547
25.09, 101648.29, 0.29,-0.52, 9.64, 11552
25.09, 101648.29, 0.25,-0.50, 9.66, 11557
25.09, 101648.29, 0.25,-0.61, 9.66, 11562
25.09, 101645.98, 0.27,-0.56, 9.66, 11567
25.09, 101645.98, 0.23,-0.50, 9.64, 11572
25.09, 101645.98, 0.25,-0.46, 9.69, 11577
25.09, 101645.98, 0.29,-0.50, 9.67, 11582
25.09, 101645.98, 0.27,-0.56, 9.62, 11587
25.09, 101645.98, 0.34,-0.50, 9.62, 11592
25.09, 101645.98, 0.21,-0.54, 9.56, 11597
25.09, 101645.48, 0.27,-0.48, 9.56, 11602
25.09, 101645.48, 0.29,-0.52, 9.62, 11607
25.09, 101645.48, 0.25,-0.54, 9.69, 11612
25.09, 101645.48, 0.25,-0.52, 9.62, 11617
25.09, 101645.48, 0.33,-0.50, 9.69, 11622
25.09, 101645.48, 0.27,-0.56, 9.66, 11627
25.09, 101645.48, 0.19,-0.56, 9.69, 11632
25.09, 101645.54, 0.31,-0.56, 9.62, 11637
25.09, 101645.54, 0.27,-0.59, 9.54, 11642
25.09, 101645.54, 0.23,-0.50, 9.66, 11647
25.09, 101645.54, 0.19,-0.61, 9.67, 11652
25.09, 101645.54, 0.15,-0.59, 9.69, 11657
25.09, 101645.54, 0.25,-0.56, 9.67, 11662
25.09, 101645.54, 0.17,-0.50, 9.64, 11667
25.09, 101641.59, 0.19,-0.54, 9.62, 11672
25.09, 101641.59, 0.21,-0.57, 9.66, 11677
25.09, 101641.59, 0.17,-0.54, 9.54, 11682
25.09, 101641.59, 0.17,-0.61, 9.56, 11687
25.09, 101641.59, 0.19,-0.57, 9.58, 11692
25.09, 101641.59, 0.19,-0.59, 9.64, 11697
25.09, 101641.59, 0.23,-0.59, 9.67, 11702
25.09, 101642.92, 0.19,-0.63, 9.67, 11707
25.09, 101642.92, 0.17,-0.56, 9.67, 11712
25.09, 101642.92, 0.15,-0.56, 9.66, 11717
25.09, 101642.92, 0.27,-0.46, 9.66, 11722
25.09, 101642.92, 0.13,-0.50, 9.60, 11727
25.09, 101642.92, 0.19,-0.54, 9.64, 11732
25.09, 101642.92, 0.27,-0.54, 9.66, 11737
25.09, 101645.65, 0.11,-0.52, 9.62, 11742
25.09, 101645.65, 0.27,-0.54, 9.45, 11747
25.09, 101645.65, 0.19,-0.57, 9.79, 11752
25.09, 101645.65, 0.17,-0.56, 9.75, 11757
25.09, 101645.65, 0.21,-0.57, 9.62, 11762
25.09, 101645.65, 0.19,-0.57, 9.56, 11767
25.09, 101645.65, 0.27,-0.50, 9.64, 11772
25.09, 101645.06, 0.21,-0.56, 9.64, 11777
25.09, 101645.06, 0.21,-0.54, 9.60, 11782
25.09, 101645.06, 0.19,-0.57, 9.66, 11787
25.09, 101645.06, 0.23,-0.59, 9.60, 11792
25.09, 101645.06, 0.19,-0.57, 9.66, 11800
25.09, 101645.06, 0.27,-0.57, 9.69, 11804
25.09, 101645.06, 0.23,-0.57, 9.62, 11809
25.09, 101647.91, 0.25,-0.50, 9.60, 11814
25.09, 101647.91, 0.15,-0.48, 9.50, 11819
25.09, 101647.91, 0.17,-0.50, 9.77, 11824
25.09, 101647.91, 0.34,-0.57, 9.60, 11829
25.09, 101647.91, 0.25,-0.48, 9.75, 11834
25.09, 101647.91, 0.17,-0.56, 9.52, 11839
25.09, 101647.91, 0.23,-0.48, 9.87, 11844
25.09, 101645.81, 0.36,-0.52, 9.71, 11849
25.09, 101645.81, 0.27,-0.57, 9.77, 11854
25.09, 101645.81, 0.21,-0.54, 9.58, 11859
25.09, 101645.81, 0.21,-0.54, 9.60, 11864
25.09, 101645.81, 0.27,-0.57, 9.60, 11869
25.09, 101645.81, 0.33,-0.59, 9.62, 11874
25.09, 101645.81, 0.27,-0.59, 9.69, 11879
25.09, 101646.42, 0.13,-0.56, 9.71, 11884
25.09, 101646.42, 0.19,-0.50, 9.66, 11889
25.09, 101646.42, 0.23,-0.56, 9.71, 11894
25.09, 101646.42, 0.19,-0.57, 9.71, 11899
25.09, 101646.42, 0.19,-0.59, 9.67, 11904
25.09, 101646.42, 0.19,-0.54, 9.64, 11909
25.09, 101646.42, 0.21,-0.59, 9.71, 11914
25.09, 101644.83, 0.25,-0.65, 9.62, 11919
25.09, 101644.83, 0.15,-0.57, 9.58, 11924
25.09, 101644.83, 0.15,-0.59, 9.64, 11929
25.09, 101644.83, 0.23,-0.59, 9.60, 11934
25.09, 101644.83, 0.21,-0.54, 9.64, 11939
25.09, 101644.83, 0.25,-0.50, 9.56, 11944
25.09, 101644.83, 0.23,-0.52, 9.81, 11949
25.09, 101646.70, 0.27,-0.52, 9.46, 11954
25.09, 101646.70, 0.27,-0.63, 9.48, 11959
25.09, 101646.70, 0.27,-0.48, 9.54, 11964
25.09, 101646.70, 0.29,-0.67, 9.67, 11969
25.09, 101646.70, 0.31,-0.59, 9.62, 11974
25.09, 101646.70, 0.31,-0.56, 9.77, 11979
25.09, 101646.70, 0.19,-0.56, 9.64, 11984
25.09, 101643.39, 0.19,-0.56, 9.64, 11989
25.09, 101643.39, 0.34,-0.57, 9.62, 11994
25.09, 101643.39, 0.31,-0.61, 9.67, 11999
25.09, 101643.39, 0.34,-0.57, 9.62, 12004
25.09, 101643.39, 0.33,-0.61, 9.60, 12009
25.09, 101643.39, 0.27,-0.52, 9.56, 12014
25.09, 101643.39, 0.25,-0.54, 9.64, 12019
25.09, 101643.39, 0.23,-0.52, 9.66, 12024
25.09, 101643.74, 0.27,-0.52, 9.62, 12029
25.09, 101643.74, 0.23,-0.57, 9.67, 12034
25.09, 101643.74, 0.21,-0.56, 9.67, 12039
25.09, 101643.74, 0.25,-0.63, 9.67, 12044
25.09, 101643.74, 0.21,-0.59, 9.69, 12049
25.09, 101643.74, 0.25,-0.57, 9.67, 12054
25.09, 101643.74, 0.27,-0.63, 9.66, 12059
25.09, 101645.70, 0.19,-0.59, 9.67, 12064
25.09, 101645.70, 0.15,-0.54, 9.71, 12069
25.09, 101645.70, 0.21,-0.57, 9.66, 12074
25.09, 101645.70, 0.25,-0.59, 9.64, 12079
25.09, 101645.70, 0.19,-0.52, 9.62, 12084
25.09, 101645.70, 0.23,-0.63, 9.81, 12089
25.09, 101645.70, 0.23,-0.50, 9.45, 12094
25.09, 101646.03, 0.19,-0.54, 9.89, 12099
25.09, 101646.03, 0.21,-0.52, 9.45, 12104
25.09, 101646.03, 0.25,-0.57, 9.66, 12109
25.09, 101646.03, 0.25,-0.54, 9.48, 12114
25.09, 101646.03, 0.23,-0.61, 9.52, 12119
25.09, 101646.03, 0.23,-0.54, 9.56, 12124
25.09, 101646.03, 0.25,-0.56, 9.60, 12129
25.09, 101645.54, 0.23,-0.57, 9.60, 12134
25.09, 101645.54, 0.29,-0.56, 9.66, 12139
25.09, 101645.54, 0.31,-0.57, 9.56, 12144
25.09, 101645.54, 0.29,-0.52, 9.62, 12149
25.09, 101645.54, 0.29,-0.54, 9.67, 12154
25.09, 101645.54, 0.21,-0.57, 9.62, 12159
25.09, 101645.54, 0.15,-0.57, 9.67, 12164
25.09, 101645.81, 0.15,-0.65, 9.67, 12169
25.09, 101645.81, 0.21,-0.61, 9.67, 12174
25.09, 101645.81, 0.23,-0.56, 9.66, 12179
25.09, 101645.81, 0.23,-0.56, 9.67, 12184
25.09, 101645.81, 0.29,-0.57, 9.66, 12189
25.09, 101645.81, 0.25,-0.50, 9.67, 12194
25.09, 101645.81, 0.25,-0.56, 9.64, 12199
25.09, 101646.31, 0.27,-0.61, 9.56, 12204
25.09, 101646.31, 0.23,-0.57, 9.67, 12209
25.09, 101646.31, 0.21,-0.57, 9.64, 12214
25.09, 101646.31, 0.17,-0.46, 9.75, 12219
25.09, 101646.31, 0.21,-0.52, 9.52, 12224
25.09, 101646.31, 0.21,-0.59, 9.64, 12229
25.09, 101646.31, 0.23,-0.57, 9.60, 12234
25.09, 101647.20, 0.25,-0.59, 9.56, 12239
25.09, 101647.20, 0.31,-0.61, 9.62, 12244
25.09, 101647.20, 0.27,-0.56, 9.56, 12249
25.09, 101647.20, 0.21,-0.56, 9.73, 12254
25.09, 101647.20, 0.23,-0.52, 9.60, 12259
25.09, 101647.20, 0.31,-0.61, 9.69, 12264
25.09, 101647.20, 0.27,-0.61, 9.56, 12269
25.09, 101645.48, 0.23,-0.59, 9.58, 12274
25.09, 101645.48, 0.25,-0.52, 9.62, 12279
25.09, 101645.48, 0.23,-0.57, 9.66, 12284
25.09, 101645.48, 0.19,-0.52, 9.60, 12289
25.09, 101645.48, 0.25,-0.57, 9.62, 12294
25.09, 101645.48, 0.27,-0.54, 9.64, 12302
25.09, 101645.48, 0.21,-0.57, 9.52, 12306
25.09, 101645.00, 0.21,-0.54, 9.67, 12311
25.09, 101645.00, 0.23,-0.54, 9.64, 12316
25.09, 101645.00, 0.25,-0.56, 9.64, 12321
25.09, 101645.00, 0.21,-0.59, 9.64, 12326
25.09, 101645.00, 0.23,-0.52, 9.79, 12331
25.09, 101645.00, 0.19,-0.52, 9.62, 12336
25.09, 101645.00, 0.11,-0.54, 9.67, 12341
25.09, 101643.12, 0.23,-0.59, 9.66, 12346
25.09, 101643.12, 0.17,-0.65, 9.56, 12351
25.09, 101643.12, 0.25,-0.57, 9.62, 12356
25.09, 101643.12, 0.27,-0.54, 9.62, 12361
25.09, 101643.12, 0.33,-0.57, 9.67, 12366
25.09, 101643.12, 0.23,-0.63, 9.66, 12371
25.09, 101643.12, 0.21,-0.59, 9.69, 12376
25.09, 101642.36, 0.27,-0.63, 9.66, 12381
25.09, 101642.36, 0.27,-0.57, 9.71, 12386
25.09, 101642.36, 0.23,-0.56, 9.67, 12391
25.09, 101642.36, 0.17,-0.54, 9.64, 12396
25.09, 101642.36, 0.23,-0.56, 9.66, 12401
25.09, 101642.36, 0.17,-0.54, 9.64, 12406
25.09, 101642.36, 0.23,-0.56, 9.66, 12411
25.09, 101644.23, 0.25,-0.57, 9.66, 12416
25.09, 101644.23, 0.25,-0.59, 9.60, 12421
25.09, 101644.23, 0.23,-0.54, 9.66, 12426
25.09, 101644.23, 0.29,-0.59, 9.64, 12431
25.09, 101644.23, 0.21,-0.57, 9.64, 12436
25.09, 101644.23, 0.21,-0.57, 9.64, 12441
25.09, 101644.23, 0.21,-0.52, 9.52, 12446
25.09, 101644.23, 0.21,-0.56, 9.69, 12451
25.09, 101644.23, 0.23,-0.57, 9.73, 12456
25.09, 101644.23, 0.27,-0.59, 9.41, 12461
25.09, 101644.23, 0.21,-0.65, 9.60, 12466
25.09, 101644.23, 0.19,-0.63, 9.56, 12471
25.09, 101644.23, 0.29,-0.65, 9.60, 12476
25.09, 101644.23, 0.25,-0.56, 9.71, 12481
25.09, 101644.23, 0.27,-0.63, 9.62, 12486
25.09, 101644.23, 0.25,-0.56, 9.60, 12491
25.09, 101644.23, 0.23,-0.61, 9.52, 12496
25.09, 101644.23, 0.19,-0.57, 9.60, 12501
25.09, 101644.23, 0.31,-0.63, 9.66, 12506
25.09, 101644.23, 0.21,-0.61, 9.62, 12511
25.09, 101644.23, 0.21,-0.57, 9.62, 12516
25.09, 101646.38, 0.19,-0.50, 9.69, 12521
25.09, 101646.38, 0.27,-0.56, 9.56, 12526
25.09, 101646.38, 0.21,-0.57, 9.71, 12531
25.09, 101646.38, 0.23,-0.59, 9.66, 12536
25.09, 101646.38, 0.23,-0.52, 9.60, 12541
25.09, 101646.38, 0.31,-0.50, 9.64, 12546
25.09, 101646.38, 0.27,-0.52, 9.56, 12551
25.09, 101646.38, 0.23,-0.54, 9.56, 12556
25.09, 101645.56, 0.27,-0.52, 9.52, 12561
25.09, 101645.56, 0.19,-0.63, 9.58, 12566
25.09, 101645.56, 0.19,-0.56, 9.48, 12571
25.09, 101645.56, 0.23,-0.52, 9.62, 12576
25.09, 101645.56, 0.21,-0.48, 9.62, 12581
25.09, 101645.56, 0.23,-0.54, 9.60, 12586
25.09, 101645.56, 0.29,-0.61, 9.58, 12591
25.09, 101646.05, 0.19,-0.56, 9.58, 12596
25.09, 101646.05, 0.17,-0.57, 9.66, 12601
25.09, 101646.05, 0.23,-0.59, 9.66, 12606
25.09, 101646.05, 0.25,-0.67, 9.69, 12611
25.09, 101646.05, 0.25,-0.61, 9.64, 12616
25.09, 101646.05, 0.19,-0.56, 9.71, 12621
25.09, 101646.05, 0.23,-0.59, 9.66, 12626
25.09, 101645.70, 0.27,-0.61, 9.64, 12631
25.09, 101645.70, 0.21,-0.54, 9.67, 12636
25.09, 101645.70, 0.21,-0.54, 9.69, 12641
25.09, 101645.70, 0.21,-0.56, 9.67, 12646
25.09, 101645.70, 0.21,-0.57, 9.62, 12651
25.09, 101645.70, 0.23,-0.59, 9.64, 12656
25.09, 101645.70, 0.25,-0.56, 9.64, 12661
25.09, 101643.58, 0.17,-0.52, 9.67, 12666
25.09, 101643.58, 0.27,-0.56, 9.69, 12671
25.09, 101643.58, 0.19,-0.59, 9.69, 12676
25.09, 101643.58, 0.23,-0.50, 9.69, 12681
25.09, 101643.58, 0.23,-0.61, 9.64, 12686
25.09, 101643.58, 0.27,-0.59, 9.62, 12691
25.09, 101643.58, 0.25,-0.54, 9.50, 12696
25.09, 101644.23, 0.31,-0.61, 9.56, 12701
25.09, 101644.23, 0.29,-0.65, 9.73, 12706
25.09, 101644.23, 0.19,-0.63, 9.69, 12711
25.09, 101644.23, 0.15,-0.56, 9.71, 12716
25.09, 101644.23, 0.27,-0.57, 9.71, 12721
25.09, 101644.23, 0.21,-0.57, 9.62, 12726
25.09, 101644.23, 0.31,-0.67, 9.64, 12731
25.09, 101646.22, 0.21,-0.56, 9.58, 12736
25.09, 101646.22, 0.31,-0.59, 9.64, 12741
25.09, 101646.22, 0.21,-0.57, 9.54, 12746
25.09, 101646.22, 0.27,-0.61, 9.56, 12751
25.09, 101646.22, 0.31,-0.56, 9.62, 12756
25.09, 101646.22, 0.25,-0.59, 9.64, 12761
25.09, 101646.22, 0.25,-0.52, 9.62, 12766
25.09, 101642.80, 0.29,-0.50, 9.67, 12771
25.09, 101642.80, 0.21,-0.54, 9.69, 12776
25.09, 101642.80, 0.15,-0.57, 9.71, 12781
25.09, 101642.80, 0.19,-0.65, 9.64, 12786
25.09, 101642.80, 0.21,-0.57, 9.58, 12791
25.09, 101642.80, 0.25,-0.57, 9.67, 12796
25.09, 101644.18, 0.21,-0.57, 9.64, 12807
25.09, 101644.18, 0.17,-0.65, 9.50, 12811
25.09, 101644.18, 0.23,-0.61, 9.52, 12816
25.09, 101644.18, 0.21,-0.56, 9.71, 12821
25.09, 101644.18, 0.29,-0.50, 9.62, 12826
25.09, 101644.18, 0.27,-0.48, 9.58, 12831
25.09, 101644.18, 0.27,-0.50, 9.48, 12836
25.09, 101643.80, 0.33,-0.57, 9.54, 12841
25.09, 101643.80, 0.38,-0.44, 9.54, 12846
25.09, 101643.80, 0.27,-0.54, 9.71, 12851
25.09, 101643.80, 0.40,-0.63, 9.73, 12856
25.09, 101643.80, 0.42,-0.59, 9.62, 12861
25.09, 101643.80, 0.25,-0.48, 9.54, 12866
25.09, 101643.80, 0.27,-0.42, 9.60, 12871
25.09, 101644.23, 0.36,-0.52, 9.69, 12876
25.09, 101644.23, 0.29,-0.54, 9.69, 12881
25.09, 101644.23, 0.23,-0.61, 9.58, 12886
25.09, 101644.23, 0.15,-0.59, 9.60, 12891
25.09, 101644.23, 0.21,-0.56, 9.64, 12896
25.09, 101644.23, 0.23,-0.56, 9.60, 12901
25.09, 101644.23, 0.25,-0.59, 9.67, 12906
25.09, 101644.23, 0.21,-0.57, 9.66, 12911
25.09, 101642.59, 0.19,-0.61, 9.73, 12916
25.09, 101642.59, 0.25,-0.65, 9.79, 12921
25.09, 101642.59, 0.19,-0.71, 9.73, 12926
25.09, 101642.59, 0.17,-0.59, 9.66, 12931
25.09, 101642.59, 0.15,-0.54, 9.50, 12936
25.09, 101642.59, 0.21,-0.61, 9.62, 12941
25.09, 101642.59, 0.19,-0.59, 9.58, 12946
25.09, 101643.91, 0.19,-0.61, 9.66, 12951
25.09, 101643.91, 0.11,-0.57, 9.60, 12956
25.09, 101643.91, 0.13,-0.63, 9.69, 12961
25.09, 101643.91, 0.17,-0.52, 9.66, 12966
25.09, 101643.91, 0.17,-0.59, 9.56, 12971
25.09, 101643.91, 0.19,-0.61, 9.54, 12976
25.09, 101643.91, 0.25,-0.59, 9.67, 12981
25.09, 101641.43, 0.19,-0.59, 9.56, 12986
25.09, 101641.43, 0.29,-0.59, 9.66, 12991
25.09, 101641.43, 0.29,-0.59, 9.64, 12996
25.09, 101641.43, 0.25,-0.61, 9.67, 13001
25.09, 101641.43, 0.27,-0.57, 9.66, 13006
25.09, 101641.43, 0.25,-0.52, 9.64, 13011
25.09, 101641.43, 0.27,-0.56, 9.62, 13016
25.09, 101640.33, 0.21,-0.54, 9.69, 13021
25.09, 101640.33, 0.29,-0.63, 9.66, 13026
25.09, 101640.33, 0.23,-0.57, 9.60, 13031
25.09, 101640.33, 0.25,-0.59, 9.66, 13036
25.09, 101640.33, 0.25,-0.59, 9.66, 13041
25.09, 101640.33, 0.29,-0.52, 9.66, 13046
25.09, 101640.33, 0.33,-0.59, 9.48, 13051
25.09, 101641.48, 0.23,-0.57, 9.56, 13056
25.09, 101641.48, 0.29,-0.57, 9.79, 13061
25.09, 101641.48, 0.23,-0.63, 9.62, 13066
25.09, 101641.48, 0.25,-0.63, 9.60, 13071
25.09, 101641.48, 0.25,-0.56, 9.62, 13076
25.09, 101641.48, 0.27,-0.61, 9.66, 13081
25.09, 101641.48, 0.25,-0.65, 9.62, 13086
25.09, 101644.49, 0.19,-0.54, 9.66, 13091
25.09, 101644.49, 0.21,-0.50, 9.56, 13096
25.09, 101644.49, 0.29,-0.56, 9.66, 13101
25.09, 101644.49, 0.33,-0.50, 9.71, 13106
25.09, 101644.49, 0.33,-0.52, 9.69, 13111
25.09, 101644.49, 0.36,-0.46, 9.64, 13116
25.09, 101644.49, 0.29,-0.50, 9.66, 13121
25.09, 101644.40, 0.29,-0.54, 9.62, 13126
25.09, 101644.40, 0.29,-0.52, 9.67, 13131
25.09, 101644.40, 0.27,-0.61, 9.60, 13136
25.09, 101644.40, 0.23,-0.63, 9.66, 13141
25.09, 101644.40, 0.15,-0.57, 9.66, 13146
25.09, 101644.40, 0.15,-0.52, 9.64, 13151
25.09, 101644.40, 0.17,-0.56, 9.60, 13156
25.09, 101644.00, 0.10,-0.59, 9.48, 13161
25.09, 101644.00, 0.17,-0.56, 9.69, 13166
25.09, 101644.00, 0.06,-0.59, 9.48, 13171
25.09, 101644.00, 0.13,-0.57, 9.83, 13176
25.09, 101644.00, 0.13,-0.65, 9.66, 13181
25.09, 101644.00, 0.10,-0.65, 9.75, 13186
25.09, 101644.00, 0.13,-0.65, 9.64, 13191
25.09, 101640.34, 0.19,-0.57, 9.71, 13196
25.09, 101640.34, 0.19,-0.57, 9.60, 13201
25.09, 101640.34, 0.17,-0.54, 9.64, 13206
25.09, 101640.34, 0.15,-0.57, 9.62, 13211
25.09, 101640.34, 0.21,-0.57, 9.58, 13216
25.09, 101640.34, 0.29,-0.56, 9.50, 13221
25.09, 101640.34, 0.31,-0.57, 9.54, 13226
25.09, 101643.12, 0.38,-0.52, 9.60, 13231
25.09, 101643.12, 0.33,-0.57, 9.67, 13236
25.09, 101643.12, 0.44,-0.57, 9.73, 13241
25.09, 101643.12, 0.48,-0.57, 9.62, 13246
25.09, 101643.12, 0.36,-0.50, 9.60, 13251
25.09, 101643.12, 0.40,-0.54, 9.56, 13256
25.09, 101643.12, 0.48,-0.52, 9.56, 13261
25.09, 101644.51, 0.48,-0.56, 9.62, 13266
25.09, 101644.51, 0.46,-0.54, 9.58, 13271
25.09, 101644.51, 0.40,-0.52, 9.60, 13276
25.09, 101644.51, 0.34,-0.56, 9.54, 13281
25.09, 101644.51, 0.44,-0.59, 9.71, 13286
25.09, 101644.51, 0.40,-0.54, 9.52, 13291
25.09, 101644.51, 0.29,-0.54, 9.79, 13296
25.09, 101644.51, 0.29,-0.63, 9.48, 13301
25.09, 101647.52, 0.21,-0.63, 9.54, 13309
25.09, 101647.52, 0.19,-0.59, 9.62, 13313
25.09, 101647.52, 0.17,-0.61, 9.62, 13318
25.09, 101647.52, 0.21,-0.57, 9.62, 13323
25.09, 101647.52, 0.17,-0.52, 9.48, 13328
25.09, 101647.52, 0.23,-0.54, 9.50, 13333
25.09, 101643.91, 0.15,-0.56, 9.67, 13338
25.09, 101643.91, 0.19,-0.57, 9.66, 13343
25.09, 101643.91, 0.19,-0.57, 9.69, 13348
25.09, 101643.91, 0.17,-0.59, 9.73, 13353
25.09, 101643.91, 0.11,-0.56, 9.69, 13358
25.09, 101643.91, 0.13,-0.59, 9.67, 13363
25.09, 101643.91, 0.15,-0.56, 9.64, 13368
25.09, 101641.70, 0.13,-0.61, 9.62, 13373
25.09, 101641.70, 0.11,-0.57, 9.73, 13378
25.09, 101641.70, 0.10,-0.56, 9.58, 13383
25.09, 101641.70, 0.06,-0.61, 9.77, 13388
25.09, 101641.70, 0.15,-0.57, 9.71, 13393
25.09, 101641.70, 0.15,-0.54, 9.56, 13398
25.09, 101641.70, 0.15,-0.46, 9.48, 13403
25.09, 101643.08, 0.19,-0.48, 9.50, 13408
25.09, 101643.08, 0.19,-0.56, 9.75, 13413
25.09, 101643.08, 0.27,-0.59, 9.50, 13418
25.09, 101643.08, 0.27,-0.57, 9.56, 13423
25.09, 101643.08, 0.23,-0.56, 9.54, 13428
25.09, 101643.08, 0.19,-0.50, 9.54, 13433
25.09, 101643.08, 0.19,-0.57, 9.54, 13438
25.09, 101643.08, 0.25,-0.56, 9.66, 13443
25.09, 101644.40, 0.31,-0.63, 9.75, 13448
25.09, 101644.40, 0.33,-0.61, 9.66, 13453
25.09, 101644.40, 0.33,-0.57, 9.69, 13458
25.09, 101644.40, 0.31,-0.52, 9.69, 13463
25.09, 101644.40, 0.33,-0.52, 9.60, 13468
25.09, 101644.40, 0.44,-0.50, 9.66, 13473
25.09, 101644.40, 0.52,-0.54, 9.69, 13478
25.09, 101644.40, 0.48,-0.48, 9.69, 13483
25.09, 101644.40, 0.52,-0.52, 9.64, 13488
25.09, 101644.40, 0.54,-0.46, 9.60, 13493
25.09, 101644.40, 0.57,-0.48, 9.64, 13498
25.09, 101644.40, 0.48,-0.52, 9.66, 13503
25.09, 101644.40, 0.48,-0.48, 9.66, 13508
25.09, 101644.40, 0.42,-0.38, 9.64, 13513
25.09, 101645.50, 0.40,-0.44, 9.58, 13518
25.09, 101645.50, 0.42,-0.56, 9.67, 13523
25.09, 101645.50, 0.48,-0.57, 9.73, 13528
25.09, 101645.50, 0.42,-0.56, 9.69, 13533
25.09, 101645.50, 0.44,-0.52, 9.69, 13538
25.09, 101645.50, 0.38,-0.46, 9.62, 13543
25.09, 101645.50, 0.29,-0.46, 9.71, 13548
25.09, 101646.72, 0.31,-0.46, 9.71, 13553
25.09, 101646.72, 0.23,-0.56, 9.69, 13558
25.09, 101646.72, 0.34,-0.52, 9.58, 13563
25.09, 101646.72, 0.27,-0.61, 9.60, 13568
25.09, 101646.72, 0.15,-0.61, 9.62, 13573
25.09, 101646.72, 0.13,-0.69, 9.64, 13578
25.09, 101646.72, 0.04,-0.65, 9.66, 13583
25.09, 101642.75, -0.02,-0.65, 9.69, 13588
25.09, 101642.75, -0.04,-0.65, 9.66, 13593
25.09, 101642.75, -0.13,-0.69, 9.75, 13598
25.09, 101642.75, -0.08,-0.63, 9.79, 13603
25.09, 101642.75, -0.11,-0.69, 9.66, 13608
25.09, 101642.75, -0.11,-0.65, 9.62, 13613
25.09, 101642.75, -0.17,-0.61, 9.58, 13618
25.09, 101645.56, -0.19,-0.63, 9.56, 13623
25.09, 101645.56, -0.15,-0.61, 9.66, 13628
25.09, 101645.56, -0.10,-0.67, 9.64, 13633
25.09, 101645.56, -0.15,-0.65, 9.66, 13638
25.09, 101645.56, -0.06,-0.65, 9.71, 13643
25.09, 101645.56, -0.02,-0.61, 9.77, 13648
25.09, 101645.56, 0.04,-0.80, 9.77, 13653
25.09, 101643.25, 0.00,-0.48, 9.64, 13658
25.09, 101643.25, 0.02,-0.59, 9.64, 13663
25.09, 101643.25, 0.11,-0.56, 9.41, 13668
25.09, 101643.25, 0.21,-0.57, 9.69, 13673
25.09, 101643.25, 0.19,-0.56, 9.60, 13678
25.09, 101643.25, 0.21,-0.65, 9.60, 13683
25.09, 101643.25, 0.31,-0.52, 9.56, 13688
25.09, 101642.70, 0.42,-0.56, 9.73, 13693
25.09, 101642.70, 0.38,-0.54, 9.56, 13698
25.09, 101642.70, 0.46,-0.54, 9.67, 13703
25.09, 101642.70, 0.42,-0.52, 9.64, 13708
25.09, 101642.70, 0.44,-0.50, 9.73, 13713
25.09, 101642.70, 0.48,-0.46, 9.71, 13718
25.09, 101642.70, 0.52,-0.48, 9.71, 13723
25.09, 101646.64, 0.56,-0.44, 9.64, 13728
25.09, 101646.64, 0.52,-0.46, 9.50, 13733
25.09, 101646.64, 0.56,-0.52, 9.52, 13738
25.09, 101646.64, 0.57,-0.56, 9.62, 13743
25.09, 101646.64, 0.57,-0.56, 9.62, 13748
25.09, 101646.64, 0.50,-0.54, 9.62, 13753
25.09, 101646.64, 0.52,-0.56, 9.64, 13758
25.09, 101643.74, 0.52,-0.52, 9.62, 13763
25.09, 101643.74, 0.48,-0.46, 9.64, 13768
25.09, 101643.74, 0.44,-0.48, 9.62, 13773
25.09, 101643.74, 0.46,-0.46, 9.67, 13778
25.09, 101643.74, 0.48,-0.50, 9.60, 13783
25.09, 101643.74, 0.36,-0.50, 9.62, 13788
25.09, 101643.74, 0.36,-0.54, 9.48, 13793
25.09, 101643.74, 0.40,-0.56, 9.54, 13798
25.09, 101643.91, 0.36,-0.59, 9.62, 13803
25.09, 101643.91, 0.33,-0.61, 9.58, 13811
25.09, 101643.91, 0.36,-0.61, 9.81, 13816
25.09, 101643.91, 0.36,-0.63, 9.77, 13821
25.09, 101643.91, 0.27,-0.61, 9.58, 13826
25.09, 101643.91, 0.21,-0.54, 9.50, 13831
25.09, 101643.80, 0.25,-0.57, 9.64, 13836
25.09, 101643.80, 0.29,-0.56, 9.64, 13841
25.09, 101643.80, 0.17,-0.48, 9.64, 13846
25.09, 101643.80, 0.29,-0.67, 9.64, 13851
25.09, 101643.80, 0.21,-0.63, 9.73, 13856
25.09, 101643.80, 0.15,-0.63, 9.69, 13861
25.09, 101643.80, 0.21,-0.57, 9.60, 13866
25.09, 101644.12, 0.17,-0.54, 9.60, 13871
25.09, 101644.12, 0.13,-0.63, 9.71, 13876
25.09, 101644.12, 0.11,-0.61, 9.69, 13881
25.09, 101644.12, 0.15,-0.56, 9.67, 13886
25.09, 101644.12, 0.19,-0.61, 9.73, 13891
25.09, 101644.12, 0.17,-0.57, 9.67, 13896
25.09, 101644.12, 0.13,-0.54, 9.64, 13901
25.09, 101644.73, 0.10,-0.52, 9.58, 13906
25.09, 101644.73, 0.10,-0.61, 9.58, 13911
25.09, 101644.73, 0.13,-0.59, 9.60, 13916
25.09, 101644.73, 0.13,-0.69, 9.64, 13921
25.09, 101644.73, 0.15,-0.67, 9.62, 13926
25.09, 101644.73, 0.17,-0.65, 9.62, 13931
25.09, 101644.73, 0.13,-0.61, 9.54, 13936
25.09, 101644.56, 0.15,-0.59, 9.64, 13941
25.09, 101644.56, 0.11,-0.46, 9.73, 13946
25.09, 101644.56, 0.13,-0.57, 9.73, 13951
25.09, 101644.56, 0.25,-0.61, 9.60, 13956
25.09, 101644.56, 0.23,-0.67, 9.69, 13961
25.09, 101644.56, 0.29,-0.63, 9.31, 13966
25.09, 101644.56, 0.33,-0.52, 9.54, 13971
25.09, 101644.89, 0.17,-0.61, 9.56, 13976
25.09, 101644.89, 0.29,-0.57, 9.56, 13981
25.09, 101644.89, 0.29,-0.61, 9.52, 13986
25.09, 101644.89, 0.31,-0.56, 9.64, 13991
25.09, 101644.89, 0.31,-0.52, 9.66, 13996
25.09, 101644.89, 0.27,-0.63, 9.67, 14001
25.09, 101644.89, 0.33,-0.59, 9.75, 14006
25.09, 101645.39, 0.36,-0.54, 9.73, 14011
25.09, 101644.51, 0.34,-0.56, 9.64, 14016
25.09, 101644.51, 0.25,-0.56, 9.64, 14021
25.09, 101644.51, 0.31,-0.56, 9.66, 14026
25.09, 101644.51, 0.33,-0.54, 9.60, 14031
25.09, 101644.51, 0.38,-0.50, 9.62, 14036
25.09, 101644.51, 0.34,-0.56, 9.56, 14041
25.09, 101644.51, 0.36,-0.54, 9.66, 14046
25.09, 101644.00, 0.27,-0.52, 9.66, 14051
25.09, 101644.00, 0.27,-0.54, 9.66, 14056
25.09, 101644.00, 0.40,-0.50, 9.67, 14061
25.09, 101644.00, 0.44,-0.52, 9.62, 14066
25.09, 101644.00, 0.36,-0.54, 9.69, 14071
25.09, 101644.00, 0.36,-0.56, 9.79, 14076
25.09, 101644.00, 0.33,-0.59, 9.67, 14081
25.09, 101646.37, 0.33,-0.50, 9.46, 14086
25.09, 101646.37, 0.33,-0.56, 9.56, 14091
25.09, 101646.37, 0.34,-0.54, 9.54, 14096
25.09, 101646.37, 0.25,-0.54, 9.50, 14101
25.09, 101646.37, 0.25,-0.52, 9.69, 14106
25.09, 101646.37, 0.34,-0.50, 9.67, 14111
25.09, 101646.37, 0.27,-0.52, 9.52, 14116
25.09, 101644.73, 0.23,-0.48, 9.45, 14121
25.09, 101644.73, 0.29,-0.52, 9.52, 14126
25.09, 101644.73, 0.29,-0.52, 9.67, 14131
25.09, 101644.73, 0.27,-0.54, 9.64, 14136
25.09, 101644.73, 0.27,-0.54, 9.60, 14141
25.09, 101644.73, 0.27,-0.65, 9.69, 14146
25.09, 101644.73, 0.27,-0.56, 9.77, 14151
25.09, 101642.20, 0.21,-0.56, 9.60, 14156
25.09, 101642.20, 0.29,-0.54, 9.66, 14161
25.09, 101642.20, 0.25,-0.50, 9.60, 14166
25.09, 101642.20, 0.33,-0.52, 9.66, 14171
25.09, 101642.20, 0.17,-0.59, 9.67, 14176
25.09, 101642.20, 0.17,-0.65, 9.75, 14181
25.09, 101642.20, 0.23,-0.61, 9.67, 14186
25.09, 101644.23, 0.27,-0.65, 9.67, 14191
25.09, 101644.23, 0.11,-0.59, 9.64, 14196
25.09, 101644.23, 0.15,-0.63, 9.58, 14201
25.09, 101644.23, 0.17,-0.63, 9.58, 14206
25.09, 101644.23, 0.17,-0.67, 9.64, 14211
25.09, 101644.23, 0.06,-0.63, 9.67, 14216
25.09, 101644.23, 0.06,-0.61, 9.64, 14221
25.09, 101644.08, 0.08,-0.57, 9.75, 14226
25.09, 101644.08, 0.06,-0.65, 9.69, 14231
25.09, 101644.08, 0.00,-0.65, 9.64, 14236
25.09, 101644.08, 0.04,-0.59, 9.69, 14241
25.09, 101644.08, 0.06,-0.63, 9.67, 14246
25.09, 101644.08, 0.04,-0.67, 9.66, 14251
25.09, 101644.08, 0.04,-0.65, 9.62, 14256
25.09, 101644.40, 0.06,-0.65, 9.62, 14261
25.09, 101644.40, 0.04,-0.63, 9.54, 14266
25.09, 101644.40, 0.04,-0.65, 9.64, 14271
25.09, 101644.40, 0.06,-0.65, 9.67, 14276
25.09, 101644.40, 0.08,-0.57, 9.69, 14281
25.09, 101644.40, 0.06,-0.61, 9.60, 14286
25.09, 101644.40, 0.08,-0.57, 9.66, 14291
25.09, 101644.23, 0.04,-0.52, 9.71, 14296
25.09, 101644.23, 0.04,-0.59, 9.54, 14301
25.09, 101644.23, 0.06,-0.57, 9.67, 14306
25.09, 101644.23, 0.11,-0.59, 9.64, 14314
25.09, 101644.23, 0.04,-0.54, 9.64, 14318
25.09, 101644.23, 0.10,-0.57, 9.69, 14323
25.09, 101644.23, 0.23,-0.56, 9.60, 14328
25.09, 101646.70, 0.15,-0.54, 9.60, 14333
25.09, 101646.70, 0.21,-0.65, 9.69, 14338
25.09, 101646.70, 0.27,-0.54, 9.64, 14343
25.09, 101646.70, 0.29,-0.61, 9.60, 14348
25.09, 101646.70, 0.25,-0.57, 9.62, 14353
25.09, 101646.70, 0.29,-0.57, 9.60, 14358
25.09, 101646.70, 0.31,-0.56, 9.60, 14363
25.09, 101644.95, 0.31,-0.52, 9.64, 14368
25.09, 101644.95, 0.31,-0.54, 9.67, 14373
25.09, 101644.95, 0.25,-0.56, 9.60, 14378
25.09, 101644.95, 0.21,-0.56, 9.73, 14383
25.09, 101644.95, 0.27,-0.57, 9.81, 14388
25.09, 101644.95, 0.29,-0.54, 9.71, 14393
25.09, 101644.95, 0.19,-0.57, 9.58, 14398
25.09, 101642.86, 0.34,-0.48, 9.69, 14403
25.09, 101642.86, 0.21,-0.56, 9.60, 14408
25.09, 101642.86, 0.21,-0.63, 9.67, 14413
25.09, 101642.86, 0.21,-0.50, 9.69, 14418
25.09, 101643.74, 0.25,-0.61, 9.60, 14494
25.09, 101643.74, 0.19,-0.57, 9.60, 14499
25.09, 101643.74, 0.19,-0.52, 9.64, 14504
25.09, 101642.59, 0.23,-0.56, 9.64, 14509
25.09, 101642.59, 0.15,-0.52, 9.66, 14514
25.09, 101642.59, 0.21,-0.54, 9.71, 14519
25.09, 101642.59, 0.17,-0.54, 9.69, 14524
25.09, 101642.59, 0.25,-0.46, 9.60, 14529
25.09, 101642.59, 0.27,-0.52, 9.64, 14534
25.09, 101642.59, 0.23,-0.56, 9.60, 14539
25.09, 101641.05, 0.19,-0.56, 9.64, 14544
25.09, 101641.05, 0.23,-0.61, 9.56, 14549
25.09, 101641.05, 0.25,-0.56, 9.54, 14554
25.09, 101641.05, 0.29,-0.52, 9.58, 14559
25.09, 101641.05, 0.29,-0.52, 9.64, 14564
25.09, 101641.05, 0.31,-0.50, 9.69, 14569
25.09, 101641.05, 0.27,-0.57, 9.64, 14574
25.09, 101642.42, 0.29,-0.56, 9.67, 14579
25.09, 101642.42, 0.27,-0.56, 9.81, 14584
25.09, 101642.42, 0.25,-0.54, 9.64, 14589
25.09, 101642.42, 0.31,-0.61, 9.75, 14594
25.09, 101642.42, 0.25,-0.57, 9.60, 14599
25.09, 101642.42, 0.29,-0.54, 9.81, 14604
25.09, 101642.42, 0.33,-0.57, 9.50, 14609
25.09, 101642.42, 0.33,-0.54, 9.23, 14614
25.09, 101642.84, 0.33,-0.56, 9.52, 14619
25.09, 101642.84, 0.25,-0.48, 9.60, 14624
25.09, 101642.84, 0.29,-0.54, 9.62, 14629
25.09, 101642.84, 0.31,-0.48, 9.69, 14634
25.09, 101642.84, 0.33,-0.52, 9.64, 14639
25.09, 101642.84, 0.27,-0.52, 9.66, 14644
25.09, 101642.84, 0.23,-0.52, 9.62, 14649
25.09, 101642.42, 0.23,-0.57, 9.58, 14654
25.09, 101642.42, 0.29,-0.59, 9.60, 14659
25.09, 101642.42, 0.23,-0.59, 9.60, 14664
25.09, 101642.42, 0.27,-0.59, 9.62, 14669
25.09, 101642.42, 0.25,-0.59, 9.64, 14674
25.09, 101642.42, 0.23,-0.59, 9.64, 14679
25.09, 101642.42, 0.23,-0.57, 9.66, 14684
25.09, 101642.42, 0.17,-0.59, 9.67, 14689
25.09, 101642.42, 0.23,-0.54, 9.66, 14694
25.09, 101642.42, 0.27,-0.54, 9.62, 14699
25.09, 101642.42, 0.25,-0.44, 9.69, 14704
25.09, 101642.42, 0.15,-0.54, 9.60, 14709
25.09, 101642.42, 0.23,-0.54, 9.66, 14714
25.09, 101642.42, 0.23,-0.59, 9.62, 14719
25.09, 101642.09, 0.25,-0.57, 9.73, 14724
25.09, 101642.09, 0.23,-0.56, 9.60, 14729
25.09, 101642.09, 0.25,-0.56, 9.73, 14734
25.09, 101642.09, 0.19,-0.52, 9.54, 14739
25.09, 101642.09, 0.31,-0.57, 9.64, 14744
25.09, 101642.09, 0.27,-0.54, 9.64, 14749
25.09, 101642.09, 0.27,-0.63, 9.66, 14754
25.09, 101645.54, 0.21,-0.56, 9.60, 14759
25.09, 101645.54, 0.27,-0.63, 9.73, 14764
25.09, 101645.54, 0.21,-0.59, 9.66, 14769
25.09, 101645.54, 0.29,-0.61, 9.67, 14774
25.09, 101645.54, 0.23,-0.54, 9.62, 14779
25.09, 101645.54, 0.29,-0.52, 9.62, 14784
25.09, 101645.54, 0.23,-0.56, 9.64, 14789
25.09, 101642.75, 0.25,-0.54, 9.66, 14794
25.09, 101642.75, 0.21,-0.54, 9.71, 14799
25.09, 101642.75, 0.23,-0.54, 9.64, 14804
25.09, 101642.75, 0.27,-0.50, 9.64, 14809
25.09, 101642.75, 0.25,-0.48, 9.64, 14814
25.09, 101642.75, 0.27,-0.54, 9.69, 14819
25.09, 101642.75, 0.23,-0.57, 9.69, 14824
25.09, 101641.81, 0.27,-0.56, 9.64, 14829
25.09, 101641.81, 0.13,-0.52, 9.67, 14834
25.09, 101641.81, 0.13,-0.54, 9.67, 14839
25.09, 101641.81, 0.19,-0.56, 9.60, 14844
25.09, 101641.81, 0.23,-0.65, 9.62, 14849
25.09, 101641.81, 0.10,-0.50, 9.56, 14854
25.09, 101641.81, 0.13,-0.65, 9.69, 14859
25.09, 101644.84, 0.15,-0.61, 9.64, 14864
25.09, 101644.84, 0.21,-0.59, 9.66, 14869
25.09, 101644.84, 0.21,-0.56, 9.73, 14874
25.09, 101644.84, 0.21,-0.59, 9.64, 14879
25.09, 101644.84, 0.21,-0.59, 9.56, 14887
25.09, 101644.84, 0.13,-0.59, 9.64, 14891
25.09, 101644.84, 0.23,-0.56, 9.64, 14896
25.09, 101645.81, 0.19,-0.65, 9.62, 14901
25.09, 101645.81, 0.23,-0.67, 9.67, 14906
25.09, 101645.81, 0.23,-0.57, 9.67, 14911
25.09, 101645.81, 0.25,-0.59, 9.62, 14916
25.09, 101645.81, 0.25,-0.56, 9.64, 14921
25.09, 101645.81, 0.25,-0.54, 9.69, 14926
25.09, 101645.81, 0.29,-0.54, 9.71, 14931
25.09, 101644.33, 0.31,-0.52, 9.67, 14936
25.09, 101644.33, 0.21,-0.52, 9.67, 14941
25.09, 101644.33, 0.29,-0.56, 9.77, 14946
25.09, 101644.33, 0.29,-0.56, 9.60, 14951
25.09, 101644.33, 0.29,-0.63, 9.64, 14956
25.09, 101644.33, 0.25,-0.56, 9.69, 14961
25.09, 101644.33, 0.34,-0.59, 9.62, 14966
25.09, 101644.89, 0.29,-0.59, 9.77, 14971
25.09, 101644.89, 0.29,-0.63, 9.50, 14976
25.09, 101644.89, 0.27,-0.48, 9.56, 14981
25.09, 101644.89, 0.29,-0.52, 9.60, 14986
25.09, 101644.89, 0.36,-0.57, 9.77, 14991
25.09, 101644.89, 0.23,-0.57, 9.62, 14996
25.09, 101644.89, 0.25,-0.54, 9.66, 15001
25.09, 101641.87, 0.19,-0.59, 9.66, 15006
25.02, 101641.59, 0.10,-0.52, 9.67, 15084
25.02, 101641.59, 0.23,-0.61, 9.67, 15089
25.02, 101641.59, 0.25,-0.65, 9.67, 15094
25.02, 101641.59, 0.21,-0.57, 9.62, 15099
25.02, 101641.59, 0.23,-0.54, 9.62, 15104
25.02, 101641.59, 0.19,-0.57, 9.50, 15109
25.02, 101645.70, 0.29,-0.61, 9.71, 15114
25.02, 101645.70, 0.27,-0.63, 9.71, 15119
25.02, 101645.70, 0.23,-0.59, 9.67, 15124
25.02, 101645.70, 0.21,-0.56, 9.54, 15129
25.02, 101645.70, 0.27,-0.57, 9.58, 15134
25.02, 101645.70, 0.29,-0.65, 9.60, 15139
25.02, 101645.70, 0.31,-0.63, 9.69, 15144
25.02, 101643.58, 0.34,-0.54, 9.66, 15149
25.02, 101643.58, 0.27,-0.63, 9.58, 15154
25.02, 101643.58, 0.29,-0.61, 9.58, 15159
25.02, 101643.58, 0.36,-0.57, 9.69, 15164
25.02, 101643.58, 0.31,-0.54, 9.64, 15169
25.02, 101643.58, 0.27,-0.50, 9.54, 15174
25.02, 101643.58, 0.25,-0.54, 9.60, 15179
25.02, 101643.02, 0.27,-0.57, 9.67, 15184
25.02, 101643.02, 0.27,-0.56, 9.71, 15189
25.02, 101643.02, 0.25,-0.63, 9.71, 15194
25.02, 101643.02, 0.27,-0.59, 9.69, 15199
25.02, 101643.02, 0.25,-0.56, 9.67, 15204
25.02, 101643.02, 0.25,-0.57, 9.73, 15209
25.02, 101643.02, 0.25,-0.54, 9.62, 15214
25.02, 101642.92, 0.25,-0.57, 9.71, 15219
25.02, 101642.92, 0.31,-0.61, 9.79, 15224
25.02, 101642.92, 0.34,-0.52, 9.64, 15229
25.02, 101642.92, 0.25,-0.44, 9.58, 15234
25.02, 101642.92, 0.31,-0.50, 9.37, 15239
25.02, 101642.92, 0.27,-0.63, 9.83, 15244
25.02, 101642.92, 0.31,-0.54, 9.56, 15249
25.02, 101644.18, 0.31,-0.56, 9.46, 15254
25.02, 101644.18, 0.31,-0.56, 9.71, 15259
25.02, 101644.18, 0.27,-0.57, 9.73, 15264
25.02, 101644.18, 0.33,-0.57, 9.66, 15269
25.02, 101644.18, 0.33,-0.61, 9.60, 15274
25.02, 101644.18, 0.34,-0.54, 9.73, 15279
25.02, 101644.18, 0.29,-0.52, 9.64, 15284
25.02, 101646.64, 0.31,-0.57, 9.58, 15289
25.02, 101646.64, 0.25,-0.56, 9.50, 15294
25.02, 101646.64, 0.27,-0.54, 9.62, 15299
25.02, 101646.64, 0.23,-0.57, 9.66, 15304
25.02, 101646.64, 0.23,-0.61, 9.66, 15309
25.02, 101646.64, 0.23,-0.61, 9.73, 15314
25.02, 101646.64, 0.25,-0.61, 9.67, 15319
25.02, 101643.34, 0.17,-0.56, 9.71, 15324
25.02, 101643.34, 0.23,-0.54, 9.66, 15329
25.02, 101643.34, 0.23,-0.56, 9.66, 15334
25.02, 101643.34, 0.19,-0.52, 9.67, 15339
25.02, 101643.34, 0.19,-0.57, 9.62, 15344
25.02, 101643.34, 0.17,-0.57, 9.54, 15349
25.02, 101643.34, 0.33,-0.54, 9.64, 15354
25.02, 101643.34, 0.29,-0.59, 9.62, 15359
25.02, 101642.59, 0.27,-0.54, 9.67, 15364
25.02, 101642.59, 0.25,-0.63, 9.46, 15369
25.02, 101642.59, 0.21,-0.56, 9.66, 15374
25.02, 101642.59, 0.21,-0.57, 9.66, 15379
25.02, 101642.59, 0.27,-0.63, 9.56, 15384
25.02, 101642.59, 0.27,-0.56, 9.58, 15389
25.02, 101642.59, 0.23,-0.56, 9.62, 15394
25.02, 101643.08, 0.17,-0.57, 9.60, 15399
25.02, 101643.08, 0.23,-0.56, 9.60, 15404
25.02, 101643.08, 0.23,-0.52, 9.54, 15409
25.02, 101643.08, 0.19,-0.52, 9.64, 15414
25.02, 101643.08, 0.11,-0.63, 9.64, 15419
25.02, 101643.08, 0.13,-0.52, 9.69, 15424
25.02, 101643.08, 0.10,-0.63, 9.73, 15429
25.02, 101643.17, 0.11,-0.63, 9.64, 15434
25.02, 101643.17, 0.10,-0.61, 9.66, 15439
25.02, 101643.17, 0.15,-0.57, 9.66, 15444
