External Temperature (C), Barometric Pressure (Pa), Acceleration X, Acceleration Y, Acceleration Z
25.29, 101654.55, 0.23,-0.57, 9.66, 10388
25.29, 101654.55, 0.23,-0.59, 9.64, 10400
25.29, 101654.55, 0.19,-0.57, 9.62, 10404
25.29, 101655.09, 0.17,-0.59, 9.54, 10409
25.29, 101655.09, 0.19,-0.57, 9.62, 10414
25.29, 101655.09, 0.19,-0.59, 9.75, 10419
25.29, 101655.09, 0.21,-0.52, 9.66, 10424
25.29, 101655.09, 0.17,-0.48, 9.66, 10429
25.29, 101655.09, 0.25,-0.50, 9.62, 10434
25.29, 101655.09, 0.17,-0.50, 9.62, 10439
25.29, 101654.21, 0.21,-0.50, 9.64, 10444
25.29, 101654.21, 0.25,-0.56, 9.66, 10449
25.29, 101654.21, 0.21,-0.52, 9.62, 10454
25.29, 101654.21, 0.23,-0.52, 9.62, 10459
25.29, 101654.21, 0.23,-0.57, 9.66, 10464
25.29, 101654.21, 0.19,-0.57, 9.62, 10469
25.29, 101654.21, 0.27,-0.57, 9.66, 10474
25.29, 101651.80, 0.19,-0.57, 9.67, 10479
25.29, 101651.80, 0.23,-0.59, 9.67, 10484
25.29, 101651.80, 0.21,-0.59, 9.75, 10489
25.29, 101651.80, 0.19,-0.67, 9.75, 10494
25.29, 101651.80, 0.25,-0.61, 9.60, 10499
25.29, 101651.80, 0.29,-0.61, 9.60, 10504
25.29, 101651.80, 0.27,-0.59, 9.60, 10509
25.29, 101651.80, 0.19,-0.59, 9.75, 10514
25.29, 101655.27, 0.27,-0.59, 9.66, 10519
25.29, 101655.27, 0.19,-0.54, 9.52, 10524
25.29, 101655.27, 0.17,-0.52, 9.56, 10529
25.29, 101655.27, 0.21,-0.50, 9.56, 10534
25.29, 101655.27, 0.23,-0.52, 9.60, 10539
25.29, 101655.27, 0.21,-0.48, 9.66, 10544
25.29, 101655.27, 0.21,-0.56, 9.69, 10549
25.29, 101653.88, 0.21,-0.59, 9.67, 10554
25.29, 101653.88, 0.23,-0.57, 9.58, 10559
25.29, 101653.88, 0.25,-0.56, 9.64, 10564
25.29, 101653.88, 0.23,-0.59, 9.62, 10569
25.29, 101653.88, 0.25,-0.57, 9.62, 10574
25.29, 101653.88, 0.25,-0.57, 9.58, 10579
25.29, 101653.88, 0.25,-0.57, 9.62, 10584
25.29, 101654.44, 0.27,-0.52, 9.62, 10589
25.29, 101654.44, 0.23,-0.46, 9.64, 10594
25.29, 101654.44, 0.27,-0.54, 9.69, 10599
25.29, 101654.44, 0.21,-0.54, 9.66, 10604
25.29, 101654.44, 0.27,-0.56, 9.71, 10609
25.29, 101654.44, 0.27,-0.50, 9.67, 10614
25.29, 101654.44, 0.27,-0.57, 9.64, 10619
25.29, 101654.10, 0.17,-0.57, 9.54, 10624
25.29, 101654.10, 0.27,-0.52, 9.60, 10629
25.29, 101654.10, 0.23,-0.57, 9.67, 10634
25.29, 101654.10, 0.23,-0.56, 9.67, 10639
25.29, 101654.10, 0.25,-0.52, 9.64, 10644
25.29, 101654.10, 0.31,-0.54, 9.69, 10649
25.29, 101654.10, 0.23,-0.57, 9.58, 10654
25.29, 101655.36, 0.23,-0.52, 9.60, 10659
25.29, 101655.36, 0.29,-0.56, 9.66, 10664
25.29, 101655.36, 0.19,-0.56, 9.62, 10669
25.29, 101655.36, 0.23,-0.56, 9.60, 10674
25.29, 101655.36, 0.23,-0.57, 9.58, 10679
25.29, 101655.36, 0.23,-0.56, 9.56, 10684
25.29, 101655.36, 0.21,-0.56, 9.64, 10689
25.29, 101653.62, 0.27,-0.56, 9.64, 10694
25.29, 101653.62, 0.25,-0.54, 9.64, 10699
25.29, 101653.62, 0.29,-0.57, 9.67, 10704
25.29, 101653.62, 0.21,-0.59, 9.64, 10709
25.29, 101653.62, 0.15,-0.52, 9.71, 10714
25.29, 101653.62, 0.19,-0.56, 9.62, 10719
25.29, 101653.62, 0.21,-0.54, 9.66, 10724
25.29, 101655.36, 0.21,-0.59, 9.69, 10729
25.29, 101655.36, 0.27,-0.59, 9.66, 10734
25.29, 101655.36, 0.15,-0.50, 9.67, 10739
25.29, 101655.36, 0.23,-0.56, 9.37, 10744
25.29, 101655.36, 0.15,-0.59, 9.52, 10749
25.29, 101655.36, 0.13,-0.63, 9.46, 10754
25.29, 101655.36, 0.31,-0.54, 9.52, 10759
25.29, 101657.02, 0.25,-0.48, 9.54, 10764
25.29, 101657.02, 0.23,-0.54, 9.66, 10769
25.29, 101657.02, 0.17,-0.56, 9.64, 10774
25.29, 101657.02, 0.21,-0.52, 9.58, 10779
25.29, 101657.02, 0.27,-0.54, 9.66, 10784
25.29, 101657.02, 0.25,-0.57, 9.71, 10789
25.29, 101657.02, 0.25,-0.57, 9.66, 10794
25.29, 101653.22, 0.25,-0.57, 9.64, 10799
25.29, 101653.22, 0.19,-0.54, 9.64, 10804
25.29, 101653.22, 0.27,-0.57, 9.62, 10809
25.29, 101653.22, 0.19,-0.56, 9.64, 10814
25.29, 101653.22, 0.23,-0.54, 9.66, 10819
25.29, 101653.22, 0.21,-0.56, 9.66, 10824
25.29, 101653.22, 0.25,-0.61, 9.62, 10829
25.29, 101655.42, 0.23,-0.59, 9.64, 10834
25.29, 101655.42, 0.29,-0.48, 9.66, 10839
25.29, 101655.42, 0.27,-0.52, 9.54, 10844
25.29, 101655.42, 0.27,-0.56, 9.71, 10849
25.29, 101655.42, 0.29,-0.56, 9.62, 10854
25.29, 101655.42, 0.25,-0.57, 9.71, 10859
25.29, 101655.42, 0.17,-0.52, 9.67, 10864
25.29, 101655.42, 0.25,-0.50, 9.62, 10869
25.29, 101652.56, 0.21,-0.44, 9.54, 10874
25.29, 101652.56, 0.21,-0.56, 9.60, 10879
25.29, 101652.56, 0.25,-0.59, 9.66, 10884
25.29, 101652.56, 0.19,-0.52, 9.64, 10889
25.29, 101652.56, 0.21,-0.54, 9.66, 10894
25.29, 101652.56, 0.15,-0.56, 9.71, 10902
25.29, 101652.23, 0.17,-0.54, 9.66, 10906
25.29, 101652.23, 0.19,-0.59, 9.60, 10911
25.29, 101652.23, 0.23,-0.52, 9.69, 10916
25.29, 101652.23, 0.19,-0.59, 9.60, 10921
25.29, 101652.23, 0.17,-0.59, 9.66, 10926
25.29, 101652.23, 0.15,-0.57, 9.52, 10931
25.29, 101652.23, 0.27,-0.59, 9.75, 10936
25.29, 101651.64, 0.23,-0.56, 9.58, 10941
25.29, 101651.64, 0.21,-0.59, 9.64, 10946
25.29, 101651.64, 0.23,-0.63, 9.64, 10951
25.29, 101651.64, 0.29,-0.57, 9.60, 10956
25.29, 101651.64, 0.23,-0.52, 9.56, 10961
25.29, 101651.64, 0.23,-0.57, 9.62, 10966
25.29, 101651.64, 0.25,-0.50, 9.60, 10971
25.29, 101654.59, 0.25,-0.46, 9.62, 10976
25.29, 101654.59, 0.17,-0.52, 9.58, 10981
25.29, 101654.59, 0.21,-0.57, 9.60, 10986
25.29, 101654.59, 0.23,-0.56, 9.60, 10991
25.29, 101654.59, 0.21,-0.57, 9.66, 10996
25.29, 101654.59, 0.25,-0.59, 9.64, 11001
25.29, 101654.59, 0.21,-0.54, 9.67, 11006
25.29, 101654.59, 0.29,-0.57, 9.64, 11011
25.29, 101653.94, 0.27,-0.56, 9.62, 11016
25.29, 101653.94, 0.23,-0.54, 9.66, 11021
25.29, 101653.94, 0.25,-0.57, 9.58, 11026
25.29, 101653.94, 0.21,-0.56, 9.62, 11031
25.29, 101653.94, 0.29,-0.46, 9.67, 11036
25.29, 101653.94, 0.25,-0.59, 9.60, 11041
25.29, 101653.94, 0.25,-0.52, 9.52, 11046
25.29, 101653.22, 0.21,-0.50, 9.56, 11051
25.29, 101653.22, 0.17,-0.57, 9.75, 11056
25.29, 101653.22, 0.21,-0.56, 9.69, 11061
25.29, 101653.22, 0.23,-0.57, 9.62, 11066
25.29, 101653.22, 0.21,-0.54, 9.71, 11071
25.29, 101653.22, 0.21,-0.54, 9.69, 11076
25.29, 101653.22, 0.27,-0.59, 9.66, 11081
25.29, 101653.22, 0.19,-0.54, 9.58, 11086
25.29, 101653.22, 0.21,-0.56, 9.62, 11091
25.29, 101653.22, 0.13,-0.57, 9.62, 11096
25.29, 101653.22, 0.21,-0.61, 9.64, 11101
25.29, 101653.22, 0.23,-0.63, 9.62, 11106
25.29, 101653.22, 0.19,-0.59, 9.64, 11111
25.29, 101653.22, 0.19,-0.56, 9.62, 11116
25.29, 101654.78, 0.23,-0.61, 9.64, 11121
25.29, 101654.78, 0.29,-0.56, 9.60, 11126
25.29, 101654.78, 0.27,-0.57, 9.60, 11131
25.29, 101654.78, 0.19,-0.54, 9.62, 11136
25.29, 101654.78, 0.17,-0.61, 9.50, 11141
25.29, 101654.78, 0.31,-0.57, 9.62, 11146
25.29, 101654.78, 0.31,-0.57, 9.56, 11151
25.29, 101652.30, 0.27,-0.56, 9.62, 11156
25.29, 101652.30, 0.27,-0.52, 9.60, 11161
25.29, 101652.30, 0.23,-0.52, 9.62, 11166
25.29, 101652.30, 0.23,-0.56, 9.50, 11171
25.29, 101652.30, 0.27,-0.52, 9.56, 11176
25.29, 101652.30, 0.29,-0.61, 9.60, 11181
25.29, 101652.30, 0.31,-0.59, 9.58, 11186
25.29, 101651.97, 0.27,-0.61, 9.62, 11191
25.29, 101651.97, 0.31,-0.50, 9.60, 11196
25.29, 101651.97, 0.21,-0.50, 9.67, 11201
25.29, 101651.97, 0.23,-0.52, 9.66, 11206
25.29, 101651.97, 0.29,-0.57, 9.62, 11211
25.29, 101651.97, 0.29,-0.63, 9.64, 11216
25.29, 101651.97, 0.29,-0.63, 9.64, 11221
25.29, 101652.63, 0.25,-0.54, 9.60, 11226
25.29, 101652.63, 0.25,-0.57, 9.62, 11231
25.29, 101652.63, 0.25,-0.57, 9.67, 11236
25.29, 101652.63, 0.25,-0.57, 9.60, 11241
25.29, 101652.63, 0.21,-0.59, 9.62, 11246
25.29, 101652.63, 0.15,-0.56, 9.62, 11251
25.29, 101652.63, 0.27,-0.54, 9.87, 11256
25.29, 101649.83, 0.17,-0.54, 9.43, 11261
25.29, 101649.83, 0.17,-0.59, 9.39, 11266
25.29, 101649.83, 0.25,-0.54, 9.50, 11271
25.29, 101649.83, 0.25,-0.50, 9.50, 11276
25.29, 101649.83, 0.27,-0.54, 9.81, 11281
25.29, 101649.83, 0.17,-0.59, 9.71, 11286
25.29, 101649.83, 0.21,-0.61, 9.64, 11291
25.29, 101651.25, 0.21,-0.56, 9.56, 11296
25.29, 101651.25, 0.17,-0.59, 9.60, 11301
25.29, 101651.25, 0.23,-0.48, 9.64, 11306
25.29, 101651.25, 0.21,-0.54, 9.62, 11311
25.29, 101651.25, 0.21,-0.59, 9.62, 11316
25.29, 101651.25, 0.19,-0.57, 9.64, 11321
25.29, 101651.25, 0.17,-0.56, 9.62, 11326
25.29, 101651.73, 0.25,-0.61, 9.64, 11331
25.29, 101651.73, 0.25,-0.61, 9.69, 11336
25.29, 101651.73, 0.31,-0.57, 9.66, 11341
25.29, 101651.73, 0.25,-0.48, 9.64, 11346
25.29, 101651.73, 0.23,-0.57, 9.64, 11351
25.29, 101651.73, 0.29,-0.56, 9.66, 11356
25.29, 101651.73, 0.23,-0.56, 9.69, 11361
25.29, 101651.73, 0.31,-0.54, 9.71, 11366
25.29, 101654.59, 0.31,-0.59, 9.69, 11371
25.29, 101654.59, 0.23,-0.52, 9.56, 11376
25.29, 101654.59, 0.19,-0.52, 9.62, 11381
25.29, 101654.59, 0.15,-0.59, 9.52, 11386
25.29, 101654.59, 0.21,-0.56, 9.71, 11391
25.29, 101654.59, 0.27,-0.54, 9.69, 11396
25.29, 101654.93, 0.19,-0.54, 9.67, 11405
25.29, 101654.93, 0.17,-0.54, 9.66, 11410
25.29, 101654.93, 0.19,-0.57, 9.64, 11415
25.29, 101654.93, 0.21,-0.59, 9.66, 11420
25.29, 101654.93, 0.29,-0.50, 9.62, 11425
25.29, 101654.93, 0.23,-0.52, 9.62, 11430
25.29, 101654.93, 0.19,-0.63, 9.67, 11435
25.29, 101653.94, 0.17,-0.61, 9.48, 11440
25.29, 101653.94, 0.27,-0.59, 9.62, 11445
25.29, 101653.94, 0.19,-0.57, 9.46, 11450
25.29, 101653.94, 0.21,-0.57, 9.56, 11455
25.29, 101653.94, 0.17,-0.52, 9.60, 11460
25.29, 101653.94, 0.21,-0.56, 9.58, 11465
25.29, 101653.94, 0.17,-0.54, 9.62, 11470
25.29, 101655.27, 0.21,-0.52, 9.69, 11475
25.29, 101655.27, 0.21,-0.52, 9.64, 11480
25.29, 101655.27, 0.23,-0.59, 9.58, 11485
25.29, 101655.27, 0.29,-0.57, 9.56, 11490
25.29, 101655.27, 0.25,-0.57, 9.64, 11495
25.29, 101655.27, 0.25,-0.57, 9.66, 11500
25.29, 101655.27, 0.21,-0.54, 9.60, 11505
25.29, 101654.93, 0.17,-0.52, 9.58, 11510
25.29, 101654.93, 0.25,-0.54, 9.56, 11515
25.29, 101654.93, 0.31,-0.56, 9.58, 11520
25.29, 101654.93, 0.19,-0.59, 9.62, 11525
25.29, 101654.93, 0.25,-0.59, 9.66, 11530
25.29, 101654.93, 0.25,-0.56, 9.64, 11535
25.29, 101654.93, 0.29,-0.50, 9.67, 11540
25.29, 101653.88, 0.21,-0.56, 9.66, 11545
25.29, 101653.88, 0.27,-0.50, 9.64, 11550
25.29, 101653.88, 0.23,-0.56, 9.56, 11555
25.29, 101653.88, 0.23,-0.48, 9.48, 11560
25.29, 101653.88, 0.17,-0.56, 9.56, 11565
25.29, 101653.88, 0.21,-0.59, 9.83, 11570
25.29, 101653.88, 0.23,-0.59, 9.52, 11575
25.29, 101656.03, 0.25,-0.63, 9.62, 11580
25.29, 101656.03, 0.27,-0.63, 9.62, 11585
25.29, 101656.03, 0.29,-0.61, 9.52, 11590
25.29, 101656.03, 0.21,-0.61, 9.66, 11595
25.29, 101656.03, 0.21,-0.57, 9.64, 11600
25.29, 101656.03, 0.25,-0.61, 9.62, 11605
25.29, 101656.03, 0.23,-0.56, 9.67, 11610
25.29, 101655.87, 0.25,-0.61, 9.66, 11615
25.29, 101653.22, 0.25,-0.57, 9.67, 11620
25.29, 101653.22, 0.21,-0.54, 9.69, 11625
25.29, 101653.22, 0.19,-0.57, 9.66, 11630
25.29, 101653.22, 0.21,-0.57, 9.64, 11635
25.29, 101653.22, 0.25,-0.57, 9.60, 11640
25.29, 101653.22, 0.27,-0.56, 9.64, 11645
25.29, 101653.22, 0.23,-0.61, 9.54, 11650
25.29, 101652.72, 0.23,-0.59, 9.50, 11655
25.29, 101652.72, 0.19,-0.52, 9.56, 11660
25.29, 101652.72, 0.15,-0.48, 9.48, 11665
25.29, 101652.72, 0.23,-0.50, 9.54, 11670
25.29, 101652.72, 0.25,-0.56, 9.67, 11675
25.29, 101652.72, 0.27,-0.54, 9.83, 11680
25.29, 101652.72, 0.19,-0.52, 9.73, 11685
25.29, 101654.10, 0.11,-0.56, 9.66, 11690
25.29, 101654.10, 0.21,-0.52, 9.64, 11695
25.29, 101654.10, 0.25,-0.56, 9.71, 11700
25.29, 101654.10, 0.33,-0.63, 9.71, 11705
25.29, 101654.10, 0.31,-0.63, 9.64, 11710
25.29, 101654.10, 0.25,-0.59, 9.60, 11715
25.29, 101654.10, 0.31,-0.57, 9.56, 11720
25.29, 101652.45, 0.23,-0.61, 9.62, 11725
25.29, 101652.45, 0.27,-0.61, 9.58, 11730
25.29, 101652.45, 0.27,-0.54, 9.62, 11735
25.29, 101652.45, 0.27,-0.52, 9.62, 11740
25.29, 101652.45, 0.31,-0.54, 9.66, 11745
25.29, 101652.45, 0.27,-0.56, 9.66, 11750
25.29, 101652.45, 0.21,-0.54, 9.66, 11755
25.29, 101654.48, 0.19,-0.54, 9.60, 11760
25.29, 101654.48, 0.21,-0.52, 9.71, 11765
25.29, 101654.48, 0.23,-0.52, 9.56, 11770
25.29, 101654.48, 0.25,-0.54, 9.58, 11775
25.29, 101654.48, 0.23,-0.52, 9.62, 11780
25.29, 101654.48, 0.23,-0.57, 9.66, 11785
25.29, 101654.48, 0.19,-0.54, 9.62, 11790
25.29, 101652.45, 0.19,-0.57, 9.60, 11795
25.29, 101652.45, 0.17,-0.56, 9.52, 11800
25.29, 101652.45, 0.23,-0.56, 9.67, 11805
25.29, 101652.45, 0.25,-0.52, 9.66, 11810
25.29, 101652.45, 0.21,-0.57, 9.71, 11815
25.29, 101652.45, 0.17,-0.50, 9.67, 11820
25.29, 101652.45, 0.17,-0.56, 9.69, 11825
25.29, 101654.82, 0.13,-0.57, 9.73, 11830
25.29, 101654.82, 0.19,-0.54, 9.71, 11835
25.29, 101654.82, 0.21,-0.57, 9.67, 11840
25.29, 101654.82, 0.23,-0.56, 9.66, 11845
25.29, 101654.82, 0.23,-0.57, 9.56, 11850
25.29, 101654.82, 0.31,-0.50, 9.64, 11855
25.29, 101654.82, 0.19,-0.48, 9.67, 11860
25.29, 101653.72, 0.13,-0.50, 9.64, 11865
25.29, 101653.72, 0.19,-0.54, 9.62, 11870
25.29, 101653.72, 0.25,-0.52, 9.67, 11875
25.29, 101653.72, 0.29,-0.59, 9.56, 11880
25.29, 101653.72, 0.21,-0.56, 9.54, 11885
25.29, 101653.72, 0.27,-0.54, 9.60, 11890
25.29, 101653.72, 0.27,-0.59, 9.52, 11895
25.29, 101654.71, 0.25,-0.56, 9.52, 11900
25.29, 101654.71, 0.23,-0.59, 9.46, 11908
25.29, 101654.71, 0.34,-0.57, 9.58, 11912
25.29, 101654.71, 0.25,-0.56, 9.64, 11917
25.29, 101654.71, 0.21,-0.59, 9.67, 11922
25.29, 101654.71, 0.17,-0.56, 9.64, 11927
25.29, 101654.71, 0.19,-0.52, 9.69, 11932
25.29, 101653.94, 0.21,-0.54, 9.62, 11937
25.29, 101653.94, 0.21,-0.56, 9.62, 11942
25.29, 101653.94, 0.23,-0.57, 9.58, 11947
25.29, 101653.94, 0.21,-0.57, 9.66, 11952
25.29, 101653.94, 0.25,-0.57, 9.69, 11957
25.29, 101653.94, 0.15,-0.52, 9.66, 11962
25.29, 101653.94, 0.17,-0.52, 9.60, 11967
25.29, 101651.80, 0.15,-0.50, 9.64, 11972
25.29, 101651.80, 0.27,-0.54, 9.73, 11977
25.29, 101651.80, 0.11,-0.69, 9.67, 11982
25.29, 101651.80, 0.19,-0.61, 9.64, 11987
25.29, 101651.80, 0.17,-0.56, 9.75, 11992
25.29, 101651.80, 0.25,-0.56, 9.54, 11997
25.29, 101651.80, 0.29,-0.56, 9.64, 12002
25.29, 101653.55, 0.21,-0.52, 9.64, 12007
25.29, 101653.55, 0.17,-0.52, 9.62, 12012
25.29, 101653.55, 0.23,-0.52, 9.60, 12017
25.29, 101653.55, 0.29,-0.56, 9.66, 12022
25.29, 101653.55, 0.25,-0.57, 9.67, 12027
25.29, 101653.55, 0.21,-0.61, 9.66, 12032
25.29, 101653.55, 0.25,-0.65, 9.67, 12037
25.29, 101653.61, 0.23,-0.59, 9.71, 12042
25.29, 101653.61, 0.23,-0.57, 9.67, 12047
25.29, 101653.61, 0.23,-0.57, 9.66, 12052
25.29, 101653.61, 0.27,-0.63, 9.62, 12057
25.29, 101653.61, 0.23,-0.57, 9.60, 12062
25.29, 101653.61, 0.23,-0.59, 9.64, 12067
25.29, 101653.61, 0.21,-0.56, 9.56, 12072
25.29, 101654.22, 0.21,-0.57, 9.62, 12077
25.29, 101654.22, 0.25,-0.59, 9.56, 12082
25.29, 101654.22, 0.25,-0.57, 9.62, 12087
25.29, 101654.22, 0.23,-0.63, 9.58, 12092
25.29, 101654.22, 0.25,-0.59, 9.58, 12097
25.29, 101654.22, 0.19,-0.44, 9.60, 12102
25.29, 101654.22, 0.27,-0.46, 9.62, 12107
25.29, 101654.22, 0.25,-0.50, 9.77, 12112
25.29, 101654.82, 0.25,-0.56, 9.54, 12117
25.29, 101654.82, 0.27,-0.50, 9.56, 12122
25.29, 101654.82, 0.33,-0.57, 9.48, 12127
25.29, 101654.82, 0.23,-0.57, 9.58, 12132
25.29, 101654.82, 0.21,-0.50, 9.66, 12137
25.29, 101654.82, 0.19,-0.56, 9.64, 12142
25.29, 101654.82, 0.23,-0.57, 9.66, 12147
25.29, 101652.06, 0.25,-0.57, 9.67, 12152
25.29, 101652.06, 0.27,-0.61, 9.69, 12157
25.29, 101652.06, 0.29,-0.57, 9.66, 12162
25.29, 101652.06, 0.29,-0.57, 9.62, 12167
25.29, 101652.06, 0.17,-0.59, 9.67, 12172
25.29, 101652.06, 0.15,-0.65, 9.62, 12177
25.29, 101652.06, 0.27,-0.59, 9.62, 12182
25.29, 101652.78, 0.23,-0.52, 9.58, 12187
25.29, 101652.78, 0.19,-0.59, 9.50, 12192
25.29, 101652.78, 0.25,-0.63, 9.50, 12197
25.29, 101652.78, 0.31,-0.59, 9.58, 12202
25.29, 101652.78, 0.25,-0.50, 9.60, 12207
25.29, 101652.78, 0.25,-0.59, 9.58, 12212
25.29, 101652.78, 0.27,-0.57, 9.67, 12217
25.29, 101654.16, 0.21,-0.57, 9.75, 12222
25.29, 101654.16, 0.13,-0.59, 9.71, 12227
25.29, 101654.16, 0.15,-0.50, 9.69, 12232
25.29, 101654.16, 0.27,-0.56, 9.64, 12237
25.29, 101654.16, 0.27,-0.56, 9.50, 12242
25.29, 101654.16, 0.27,-0.54, 9.52, 12247
25.29, 101654.16, 0.25,-0.52, 9.64, 12252
25.29, 101652.78, 0.21,-0.61, 9.64, 12257
25.29, 101652.78, 0.15,-0.59, 9.67, 12262
25.29, 101652.78, 0.23,-0.59, 9.64, 12267
25.29, 101652.78, 0.19,-0.59, 9.58, 12272
25.29, 101652.78, 0.19,-0.57, 9.66, 12277
25.29, 101652.78, 0.13,-0.56, 9.66, 12282
25.29, 101652.78, 0.17,-0.59, 9.64, 12287
25.29, 101652.95, 0.21,-0.61, 9.67, 12292
25.29, 101652.95, 0.17,-0.61, 9.56, 12297
25.29, 101652.95, 0.27,-0.54, 9.77, 12302
25.29, 101652.95, 0.29,-0.52, 9.90, 12307
25.29, 101652.95, 0.27,-0.56, 9.75, 12312
25.29, 101652.95, 0.25,-0.50, 9.56, 12317
25.29, 101652.95, 0.19,-0.63, 9.64, 12322
25.29, 101651.62, 0.19,-0.59, 9.60, 12327
25.29, 101651.62, 0.21,-0.63, 9.52, 12332
25.29, 101651.62, 0.25,-0.50, 9.60, 12337
25.29, 101651.62, 0.13,-0.52, 9.56, 12342
25.29, 101651.62, 0.19,-0.44, 9.66, 12347
25.29, 101651.62, 0.21,-0.59, 9.69, 12352
25.29, 101651.62, 0.29,-0.48, 9.58, 12357
25.29, 101655.87, 0.25,-0.56, 9.64, 12362
25.29, 101655.87, 0.29,-0.61, 9.66, 12367
25.29, 101655.87, 0.21,-0.56, 9.69, 12372
25.29, 101655.87, 0.23,-0.61, 9.67, 12377
25.29, 101655.87, 0.19,-0.56, 9.66, 12382
25.29, 101655.87, 0.17,-0.56, 9.60, 12387
25.29, 101655.87, 0.21,-0.52, 9.62, 12392
25.29, 101654.05, 0.23,-0.52, 9.64, 12397
25.29, 101654.05, 0.23,-0.57, 9.67, 12402
25.29, 101654.05, 0.25,-0.56, 9.52, 12410
25.29, 101654.05, 0.23,-0.54, 9.66, 12414
25.29, 101654.05, 0.21,-0.56, 9.77, 12419
25.29, 101654.05, 0.13,-0.56, 9.67, 12424
25.29, 101654.05, 0.15,-0.52, 9.64, 12429
25.29, 101653.56, 0.15,-0.54, 9.73, 12434
25.29, 101653.56, 0.19,-0.67, 9.67, 12439
25.29, 101653.56, 0.23,-0.61, 9.67, 12444
25.29, 101653.56, 0.19,-0.56, 9.66, 12449
25.29, 101653.56, 0.21,-0.57, 9.62, 12454
25.29, 101653.56, 0.23,-0.63, 9.64, 12459
25.29, 101653.56, 0.21,-0.57, 9.64, 12464
25.29, 101654.39, 0.23,-0.56, 9.67, 12469
25.29, 101654.39, 0.19,-0.52, 9.64, 12474
25.29, 101654.39, 0.19,-0.54, 9.67, 12479
25.29, 101654.39, 0.25,-0.57, 9.62, 12484
25.29, 101654.39, 0.27,-0.56, 9.67, 12489
25.29, 101654.39, 0.19,-0.57, 9.62, 12494
25.29, 101654.39, 0.21,-0.56, 9.58, 12499
25.29, 101652.02, 0.21,-0.50, 9.60, 12504
25.29, 101652.02, 0.23,-0.56, 9.69, 12509
25.29, 101652.02, 0.23,-0.56, 9.69, 12514
25.29, 101652.02, 0.25,-0.54, 9.66, 12519
25.29, 101652.02, 0.25,-0.59, 9.73, 12524
25.29, 101652.02, 0.15,-0.61, 9.64, 12529
25.29, 101652.02, 0.23,-0.61, 9.64, 12534
25.29, 101653.06, 0.27,-0.52, 9.58, 12539
25.29, 101653.06, 0.25,-0.57, 9.58, 12544
25.29, 101653.06, 0.17,-0.57, 9.58, 12549
25.29, 101653.06, 0.15,-0.61, 9.62, 12554
25.29, 101653.06, 0.15,-0.61, 9.58, 12559
25.29, 101653.06, 0.15,-0.57, 9.62, 12564
25.29, 101653.06, 0.11,-0.50, 9.66, 12569
25.29, 101651.91, 0.13,-0.56, 9.64, 12574
25.29, 101650.14, 0.21,-0.56, 9.62, 12579
25.29, 101650.14, 0.17,-0.59, 9.69, 12584
25.29, 101650.14, 0.23,-0.56, 9.71, 12589
25.29, 101650.14, 0.27,-0.56, 9.62, 12594
25.29, 101650.14, 0.17,-0.59, 9.62, 12599
25.29, 101650.14, 0.25,-0.57, 9.64, 12604
25.29, 101650.14, 0.27,-0.67, 9.58, 12609
25.29, 101654.55, 0.25,-0.61, 9.77, 12614
25.29, 101654.55, 0.29,-0.56, 9.60, 12619
25.29, 101654.55, 0.27,-0.52, 9.71, 12624
25.29, 101654.55, 0.15,-0.65, 9.64, 12629
25.29, 101654.55, 0.25,-0.59, 9.60, 12634
25.29, 101654.55, 0.29,-0.57, 9.50, 12639
25.29, 101654.55, 0.25,-0.59, 9.56, 12644
25.29, 101654.00, 0.25,-0.57, 9.56, 12649
25.29, 101654.00, 0.23,-0.57, 9.69, 12654
25.29, 101654.00, 0.23,-0.52, 9.64, 12659
25.29, 101654.00, 0.23,-0.56, 9.67, 12664
25.29, 101654.00, 0.19,-0.57, 9.66, 12669
25.29, 101654.00, 0.31,-0.57, 9.66, 12674
25.29, 101654.00, 0.25,-0.54, 9.69, 12679
25.29, 101654.71, 0.31,-0.50, 9.71, 12684
25.29, 101654.71, 0.25,-0.54, 9.66, 12689
25.29, 101654.71, 0.19,-0.56, 9.60, 12694
25.29, 101654.71, 0.21,-0.56, 9.67, 12699
25.29, 101654.71, 0.15,-0.48, 9.62, 12704
25.29, 101654.71, 0.17,-0.54, 9.67, 12709
25.29, 101654.71, 0.27,-0.57, 9.64, 12714
25.29, 101653.56, 0.29,-0.54, 9.64, 12719
25.29, 101653.56, 0.33,-0.48, 9.77, 12724
25.29, 101653.56, 0.25,-0.57, 9.48, 12729
25.29, 101653.56, 0.23,-0.61, 9.46, 12734
25.29, 101653.56, 0.17,-0.56, 9.60, 12739
25.29, 101653.56, 0.13,-0.48, 9.67, 12744
25.29, 101653.56, 0.23,-0.50, 9.64, 12749
25.29, 101653.66, 0.23,-0.54, 9.66, 12754
25.29, 101653.66, 0.21,-0.50, 9.67, 12759
25.29, 101653.66, 0.23,-0.50, 9.64, 12764
25.29, 101653.66, 0.21,-0.50, 9.71, 12769
25.29, 101653.66, 0.21,-0.59, 9.66, 12774
25.29, 101653.66, 0.21,-0.61, 9.58, 12779
25.29, 101653.66, 0.19,-0.57, 9.62, 12784
25.29, 101652.52, 0.13,-0.59, 9.54, 12789
25.29, 101652.52, 0.21,-0.54, 9.60, 12794
25.29, 101652.52, 0.19,-0.57, 9.64, 12799
25.29, 101652.52, 0.21,-0.56, 9.62, 12804
25.29, 101652.52, 0.21,-0.57, 9.69, 12809
25.29, 101652.52, 0.25,-0.59, 9.66, 12814
25.29, 101652.52, 0.25,-0.56, 9.67, 12819
25.29, 101651.13, 0.25,-0.56, 9.64, 12824
25.29, 101651.13, 0.25,-0.54, 9.67, 12829
25.29, 101651.13, 0.27,-0.54, 9.79, 12834
25.29, 101651.13, 0.27,-0.61, 9.75, 12839
25.29, 101651.13, 0.17,-0.59, 9.81, 12844
25.29, 101651.13, 0.21,-0.56, 9.71, 12849
25.29, 101651.13, 0.19,-0.52, 9.58, 12854
25.29, 101653.34, 0.27,-0.44, 9.77, 12859
25.29, 101653.34, 0.23,-0.52, 9.71, 12864
25.29, 101653.34, 0.15,-0.59, 9.66, 12869
25.29, 101653.34, 0.21,-0.61, 9.69, 12874
25.29, 101653.34, 0.29,-0.63, 9.67, 12879
25.29, 101653.34, 0.19,-0.59, 9.71, 12884
25.29, 101653.34, 0.17,-0.50, 9.73, 12889
25.29, 101651.62, 0.21,-0.59, 9.64, 12894
25.29, 101651.62, 0.27,-0.59, 9.69, 12899
25.29, 101651.62, 0.21,-0.57, 9.67, 12904
25.29, 101651.62, 0.23,-0.59, 9.60, 12912
25.29, 101651.62, 0.15,-0.56, 9.52, 12916
25.29, 101651.62, 0.19,-0.50, 9.46, 12921
25.29, 101651.62, 0.21,-0.52, 9.64, 12926
25.29, 101653.23, 0.15,-0.56, 9.62, 12931
25.29, 101653.23, 0.21,-0.56, 9.67, 12936
25.29, 101653.23, 0.23,-0.46, 9.60, 12941
25.29, 101653.23, 0.25,-0.50, 9.64, 12946
25.29, 101653.23, 0.21,-0.50, 9.62, 12951
25.29, 101653.23, 0.27,-0.50, 9.58, 12956
25.29, 101653.23, 0.21,-0.59, 9.64, 12961
25.29, 101654.16, 0.15,-0.57, 9.73, 12966
25.29, 101654.16, 0.25,-0.50, 9.64, 12971
25.29, 101654.16, 0.21,-0.54, 9.66, 12976
25.29, 101654.16, 0.23,-0.54, 9.66, 12981
25.29, 101654.16, 0.29,-0.56, 9.69, 12986
25.29, 101654.16, 0.25,-0.54, 9.66, 12991
25.29, 101654.16, 0.21,-0.56, 9.67, 12996
25.29, 101655.69, 0.27,-0.50, 9.67, 13001
25.29, 101655.69, 0.27,-0.56, 9.62, 13006
25.29, 101655.69, 0.19,-0.50, 9.56, 13011
25.29, 101655.69, 0.21,-0.52, 9.60, 13016
25.29, 101655.69, 0.17,-0.56, 9.60, 13021
25.29, 101655.69, 0.21,-0.54, 9.64, 13026
25.29, 101655.69, 0.25,-0.48, 9.66, 13031
25.29, 101652.66, 0.27,-0.57, 9.71, 13036
25.29, 101652.66, 0.23,-0.56, 9.50, 13041
25.29, 101652.66, 0.15,-0.54, 9.60, 13046
25.29, 101652.66, 0.29,-0.56, 9.69, 13051
25.29, 101652.66, 0.27,-0.56, 9.56, 13056
25.29, 101652.66, 0.29,-0.57, 9.54, 13061
25.29, 101652.66, 0.27,-0.54, 9.54, 13066
25.29, 101652.66, 0.19,-0.54, 9.48, 13071
25.29, 101652.73, 0.17,-0.50, 9.62, 13076
25.29, 101652.73, 0.21,-0.52, 9.67, 13081
25.29, 101652.73, 0.19,-0.54, 9.66, 13086
25.29, 101652.73, 0.23,-0.59, 9.71, 13091
25.29, 101652.73, 0.27,-0.59, 9.56, 13096
25.29, 101652.73, 0.27,-0.48, 9.62, 13101
25.29, 101652.73, 0.33,-0.52, 9.71, 13106
25.29, 101654.15, 0.27,-0.57, 9.69, 13111
25.29, 101654.15, 0.23,-0.54, 9.67, 13116
25.29, 101654.15, 0.29,-0.59, 9.64, 13121
25.29, 101654.15, 0.27,-0.63, 9.67, 13126
25.29, 101654.15, 0.23,-0.59, 9.64, 13131
25.29, 101654.15, 0.15,-0.52, 9.69, 13136
25.29, 101654.15, 0.27,-0.57, 9.64, 13141
25.29, 101654.22, 0.17,-0.57, 9.77, 13146
25.29, 101654.22, 0.17,-0.59, 9.73, 13151
25.29, 101654.22, 0.13,-0.65, 9.66, 13156
25.29, 101654.22, 0.19,-0.67, 9.71, 13161
25.29, 101654.22, 0.25,-0.61, 9.52, 13166
25.29, 101654.22, 0.13,-0.57, 9.71, 13171
25.29, 101654.22, 0.23,-0.57, 9.66, 13176
25.29, 101654.97, 0.21,-0.61, 9.67, 13181
25.29, 101654.97, 0.17,-0.63, 9.64, 13186
25.29, 101654.97, 0.13,-0.54, 9.62, 13191
25.29, 101654.97, 0.15,-0.59, 9.56, 13196
25.29, 101654.97, 0.19,-0.57, 9.62, 13201
25.29, 101654.97, 0.19,-0.48, 9.69, 13206
25.29, 101654.97, 0.19,-0.52, 9.62, 13211
25.29, 101654.05, 0.17,-0.59, 9.60, 13216
25.29, 101654.05, 0.25,-0.52, 9.64, 13221
25.29, 101654.05, 0.25,-0.57, 9.64, 13226
25.29, 101654.05, 0.19,-0.57, 9.69, 13231
25.29, 101654.05, 0.25,-0.54, 9.62, 13236
25.29, 101654.05, 0.19,-0.56, 9.60, 13241
25.29, 101654.05, 0.25,-0.57, 9.71, 13246
25.29, 101655.03, 0.29,-0.59, 9.67, 13251
25.29, 101655.03, 0.31,-0.57, 9.64, 13256
25.29, 101655.03, 0.27,-0.63, 9.64, 13261
25.29, 101655.03, 0.25,-0.61, 9.62, 13266
25.29, 101655.03, 0.13,-0.59, 9.73, 13271
25.29, 101655.03, 0.23,-0.63, 9.81, 13276
25.29, 101655.03, 0.25,-0.50, 9.54, 13281
25.29, 101653.06, 0.31,-0.54, 9.62, 13286
25.29, 101653.06, 0.21,-0.59, 9.73, 13291
25.29, 101653.06, 0.21,-0.59, 9.67, 13296
25.29, 101653.06, 0.15,-0.50, 9.73, 13301
25.29, 101653.06, 0.15,-0.56, 9.66, 13306
25.29, 101653.06, 0.23,-0.57, 9.66, 13311
25.29, 101653.06, 0.21,-0.59, 9.69, 13316
25.29, 101653.56, 0.25,-0.61, 9.71, 13321
25.29, 101653.56, 0.19,-0.54, 9.62, 13326
25.29, 101653.56, 0.15,-0.52, 9.64, 13331
25.29, 101653.56, 0.17,-0.59, 9.58, 13336
25.29, 101653.56, 0.25,-0.57, 9.60, 13341
25.29, 101653.56, 0.21,-0.56, 9.67, 13346
25.29, 101653.56, 0.19,-0.57, 9.58, 13351
25.29, 101654.55, 0.17,-0.57, 9.66, 13356
25.29, 101654.55, 0.21,-0.57, 9.69, 13361
25.29, 101654.55, 0.15,-0.57, 9.60, 13366
25.29, 101654.55, 0.19,-0.52, 9.54, 13371
25.29, 101654.55, 0.19,-0.54, 9.62, 13376
25.29, 101654.55, 0.23,-0.54, 9.66, 13381
25.29, 101654.55, 0.17,-0.57, 9.67, 13386
25.29, 101655.63, 0.21,-0.59, 9.60, 13391
25.29, 101655.63, 0.23,-0.56, 9.60, 13396
25.29, 101655.63, 0.25,-0.56, 9.66, 13401
25.29, 101655.63, 0.21,-0.54, 9.67, 13406
25.29, 101655.63, 0.21,-0.59, 9.71, 13414
25.29, 101655.63, 0.27,-0.54, 9.71, 13418
25.29, 101655.63, 0.29,-0.57, 9.62, 13423
25.29, 101653.89, 0.29,-0.52, 9.62, 13428
25.29, 101653.89, 0.27,-0.59, 9.60, 13433
25.29, 101653.89, 0.21,-0.56, 9.69, 13438
25.29, 101653.89, 0.23,-0.54, 9.64, 13443
25.29, 101653.89, 0.31,-0.54, 9.81, 13448
25.29, 101653.89, 0.15,-0.59, 9.67, 13453
25.29, 101653.89, 0.10,-0.63, 9.62, 13458
25.29, 101654.70, 0.19,-0.63, 9.56, 13463
25.29, 101654.70, 0.17,-0.59, 9.79, 13468
25.29, 101654.70, 0.31,-0.54, 9.79, 13473
25.29, 101654.70, 0.31,-0.52, 9.56, 13478
25.29, 101654.70, 0.25,-0.61, 9.58, 13483
25.29, 101654.70, 0.25,-0.56, 9.66, 13488
25.29, 101654.70, 0.29,-0.54, 9.58, 13493
25.29, 101655.63, 0.17,-0.50, 9.64, 13498
25.29, 101655.63, 0.23,-0.54, 9.77, 13503
25.29, 101655.63, 0.15,-0.48, 9.58, 13508
25.29, 101655.63, 0.25,-0.56, 9.64, 13513
25.29, 101655.63, 0.25,-0.52, 9.58, 13518
25.29, 101655.63, 0.21,-0.54, 9.67, 13523
25.29, 101655.63, 0.23,-0.56, 9.66, 13528
25.29, 101654.15, 0.23,-0.56, 9.66, 13533
25.29, 101653.23, 0.23,-0.56, 9.66, 13538
25.29, 101653.23, 0.25,-0.50, 9.66, 13543
25.29, 101653.23, 0.23,-0.46, 9.64, 13548
25.29, 101653.23, 0.23,-0.54, 9.62, 13553
25.29, 101653.23, 0.17,-0.61, 9.67, 13558
25.29, 101653.23, 0.25,-0.57, 9.67, 13563
25.29, 101653.23, 0.15,-0.65, 9.56, 13568
25.29, 101651.91, 0.15,-0.59, 9.60, 13573
25.29, 101651.91, 0.23,-0.57, 9.64, 13578
25.29, 101651.91, 0.23,-0.57, 9.54, 13583
25.29, 101651.91, 0.17,-0.59, 9.69, 13588
25.29, 101651.91, 0.17,-0.56, 9.77, 13593
25.29, 101651.91, 0.23,-0.57, 9.66, 13598
25.29, 101651.91, 0.27,-0.54, 9.69, 13603
25.29, 101652.02, 0.19,-0.52, 9.66, 13608
25.29, 101652.02, 0.23,-0.50, 9.66, 13613
25.29, 101652.02, 0.25,-0.56, 9.69, 13618
25.29, 101652.02, 0.10,-0.57, 9.58, 13623
25.29, 101652.02, 0.21,-0.54, 9.60, 13628
25.29, 101652.02, 0.25,-0.52, 9.64, 13633
25.29, 101652.02, 0.15,-0.56, 9.67, 13638
25.29, 101650.80, 0.21,-0.56, 9.66, 13643
25.29, 101650.80, 0.23,-0.56, 9.71, 13648
25.29, 101650.80, 0.21,-0.50, 9.60, 13653
25.29, 101650.80, 0.17,-0.52, 9.62, 13658
25.29, 101650.80, 0.17,-0.57, 9.64, 13663
25.29, 101650.80, 0.21,-0.54, 9.73, 13668
25.29, 101650.80, 0.21,-0.54, 9.67, 13673
25.29, 101652.67, 0.23,-0.50, 9.60, 13678
25.29, 101652.67, 0.17,-0.52, 9.64, 13683
25.29, 101652.67, 0.17,-0.52, 9.67, 13688
25.29, 101652.67, 0.21,-0.54, 9.60, 13693
25.29, 101652.67, 0.13,-0.54, 9.46, 13698
25.29, 101652.67, 0.23,-0.52, 9.71, 13703
25.29, 101652.67, 0.19,-0.61, 9.66, 13708
25.29, 101650.97, 0.29,-0.61, 9.66, 13713
25.29, 101650.97, 0.21,-0.56, 9.73, 13718
25.29, 101650.97, 0.21,-0.56, 9.66, 13723
25.29, 101650.97, 0.21,-0.50, 9.64, 13728
25.29, 101650.97, 0.23,-0.52, 9.62, 13733
25.29, 101650.97, 0.25,-0.56, 9.64, 13738
25.29, 101650.97, 0.21,-0.61, 9.62, 13743
25.29, 101651.62, 0.23,-0.54, 9.62, 13748
25.29, 101651.62, 0.19,-0.52, 9.60, 13753
25.29, 101651.62, 0.13,-0.59, 9.67, 13758
25.29, 101651.62, 0.19,-0.52, 9.66, 13763
25.29, 101651.62, 0.17,-0.52, 9.69, 13768
25.29, 101651.62, 0.21,-0.50, 9.64, 13773
25.29, 101651.62, 0.27,-0.54, 9.62, 13778
25.29, 101653.01, 0.19,-0.57, 9.71, 13783
25.29, 101653.01, 0.21,-0.57, 9.52, 13788
25.29, 101653.01, 0.29,-0.56, 9.69, 13793
25.29, 101653.01, 0.21,-0.59, 9.62, 13798
25.29, 101653.01, 0.23,-0.44, 9.54, 13803
25.29, 101653.01, 0.23,-0.56, 9.71, 13808
25.29, 101653.01, 0.23,-0.48, 9.54, 13813
25.29, 101652.07, 0.25,-0.52, 9.58, 13818
25.29, 101652.07, 0.23,-0.54, 9.56, 13823
25.29, 101652.07, 0.19,-0.46, 9.62, 13828
25.29, 101652.07, 0.19,-0.48, 9.64, 13833
25.29, 101652.07, 0.23,-0.54, 9.60, 13838
25.29, 101652.07, 0.27,-0.57, 9.60, 13843
25.29, 101652.07, 0.31,-0.57, 9.67, 13848
25.29, 101651.52, 0.29,-0.50, 9.60, 13853
25.29, 101651.52, 0.27,-0.54, 9.62, 13858
25.29, 101651.52, 0.29,-0.48, 9.66, 13863
25.29, 101651.52, 0.27,-0.56, 9.62, 13868
25.29, 101651.52, 0.29,-0.59, 9.60, 13873
25.29, 101651.52, 0.29,-0.54, 9.64, 13878
25.29, 101651.52, 0.29,-0.54, 9.69, 13883
25.29, 101651.52, 0.19,-0.56, 9.67, 13888
25.29, 101652.52, 0.23,-0.54, 9.62, 13893
25.29, 101652.52, 0.31,-0.52, 9.71, 13898
25.29, 101652.52, 0.21,-0.50, 9.77, 13903
25.29, 101652.52, 0.25,-0.54, 9.66, 13908
25.29, 101652.52, 0.21,-0.56, 9.64, 13918
25.29, 101652.52, 0.25,-0.59, 9.62, 13922
25.29, 101653.72, 0.23,-0.61, 9.64, 13927
25.29, 101653.72, 0.17,-0.57, 9.60, 13932
25.29, 101653.72, 0.25,-0.57, 9.66, 13937
25.29, 101653.72, 0.19,-0.63, 9.73, 13942
25.29, 101653.72, 0.15,-0.61, 9.66, 13947
25.29, 101653.72, 0.15,-0.54, 9.64, 13952
25.29, 101653.72, 0.19,-0.57, 9.62, 13957
25.29, 101653.56, 0.21,-0.59, 9.58, 13962
25.29, 101653.56, 0.15,-0.50, 9.71, 13967
25.29, 101653.56, 0.19,-0.48, 9.56, 13972
25.29, 101653.56, 0.25,-0.59, 9.52, 13977
25.29, 101653.56, 0.29,-0.54, 9.58, 13982
25.29, 101653.56, 0.27,-0.52, 9.77, 13987
25.29, 101653.56, 0.27,-0.54, 9.73, 13992
25.29, 101651.62, 0.23,-0.57, 9.69, 13997
25.29, 101651.62, 0.29,-0.59, 9.66, 14002
25.29, 101651.62, 0.38,-0.52, 9.71, 14007
25.29, 101651.62, 0.27,-0.57, 9.75, 14012
25.29, 101651.62, 0.21,-0.56, 9.71, 14017
25.29, 101651.62, 0.31,-0.54, 9.67, 14022
25.29, 101651.62, 0.29,-0.50, 9.62, 14027
25.29, 101653.50, 0.36,-0.52, 9.66, 14032
25.29, 101653.50, 0.27,-0.56, 9.67, 14037
25.29, 101653.50, 0.25,-0.59, 9.64, 14042
25.29, 101653.50, 0.27,-0.57, 9.62, 14047
25.29, 101653.50, 0.27,-0.57, 9.66, 14052
25.29, 101653.50, 0.19,-0.59, 9.69, 14057
25.29, 101653.50, 0.19,-0.59, 9.66, 14062
25.29, 101653.11, 0.19,-0.57, 9.52, 14067
25.29, 101653.11, 0.13,-0.57, 9.58, 14072
25.29, 101653.11, 0.21,-0.56, 9.67, 14077
25.29, 101653.11, 0.19,-0.52, 9.89, 14082
25.29, 101653.11, 0.19,-0.46, 9.73, 14087
25.29, 101653.11, 0.25,-0.65, 9.66, 14092
25.29, 101653.11, 0.13,-0.33, 9.64, 14097
25.29, 101654.98, 0.25,-0.56, 9.67, 14102
25.29, 101654.98, 0.25,-0.59, 9.62, 14107
25.29, 101654.98, 0.21,-0.57, 9.62, 14112
25.29, 101654.98, 0.23,-0.63, 9.66, 14117
25.29, 101654.98, 0.23,-0.57, 9.66, 14122
25.29, 101654.98, 0.21,-0.52, 9.62, 14127
25.29, 101654.98, 0.29,-0.54, 9.56, 14132
25.29, 101654.39, 0.25,-0.52, 9.64, 14137
25.29, 101654.39, 0.25,-0.52, 9.62, 14142
25.29, 101654.39, 0.27,-0.56, 9.62, 14147
25.29, 101654.39, 0.27,-0.54, 9.60, 14152
25.29, 101654.39, 0.23,-0.48, 9.64, 14157
25.29, 101654.39, 0.25,-0.59, 9.62, 14162
25.29, 101654.39, 0.25,-0.52, 9.62, 14167
25.29, 101654.39, 0.23,-0.56, 9.62, 14172
25.29, 101654.39, 0.25,-0.56, 9.62, 14177
25.29, 101654.39, 0.23,-0.52, 9.62, 14182
25.29, 101654.39, 0.17,-0.57, 9.60, 14187
25.29, 101654.39, 0.29,-0.57, 9.64, 14192
25.29, 101654.39, 0.19,-0.59, 9.66, 14197
25.29, 101654.39, 0.21,-0.57, 9.45, 14202
25.29, 101654.39, 0.23,-0.54, 9.62, 14207
25.29, 101652.73, 0.21,-0.57, 9.60, 14212
25.29, 101652.73, 0.27,-0.57, 9.71, 14217
25.29, 101652.73, 0.25,-0.63, 9.67, 14222
25.29, 101652.73, 0.21,-0.65, 9.67, 14227
25.29, 101652.73, 0.27,-0.56, 9.64, 14232
25.29, 101652.73, 0.21,-0.54, 9.66, 14237
25.29, 101652.73, 0.23,-0.56, 9.66, 14242
25.29, 101653.72, 0.21,-0.48, 9.64, 14247
25.29, 101653.72, 0.21,-0.48, 9.66, 14252
25.29, 101653.72, 0.29,-0.59, 9.56, 14257
25.29, 101653.72, 0.25,-0.54, 9.60, 14262
25.29, 101653.72, 0.33,-0.57, 9.62, 14267
25.29, 101653.72, 0.29,-0.57, 9.62, 14272
25.29, 101653.72, 0.25,-0.54, 9.64, 14277
25.29, 101652.12, 0.27,-0.56, 9.58, 14282
25.29, 101652.12, 0.21,-0.54, 9.66, 14287
25.29, 101652.12, 0.23,-0.56, 9.71, 14292
25.29, 101652.12, 0.21,-0.54, 9.67, 14297
25.29, 101652.12, 0.25,-0.57, 9.66, 14302
25.29, 101652.12, 0.25,-0.57, 9.67, 14307
25.29, 101652.12, 0.21,-0.48, 9.62, 14312
25.29, 101650.58, 0.21,-0.54, 9.67, 14317
25.29, 101650.58, 0.21,-0.61, 9.67, 14322
25.29, 101650.58, 0.21,-0.57, 9.64, 14327
25.29, 101650.58, 0.29,-0.59, 9.64, 14332
25.29, 101650.58, 0.21,-0.59, 9.77, 14337
25.29, 101650.58, 0.19,-0.57, 9.62, 14342
25.29, 101650.58, 0.19,-0.56, 9.62, 14347
25.29, 101652.45, 0.17,-0.57, 9.67, 14352
25.29, 101652.45, 0.25,-0.56, 9.56, 14357
25.29, 101652.45, 0.21,-0.52, 9.64, 14362
25.29, 101652.45, 0.23,-0.56, 9.69, 14367
25.29, 101652.45, 0.19,-0.46, 9.67, 14372
25.29, 101652.45, 0.25,-0.54, 9.64, 14377
25.29, 101652.45, 0.19,-0.57, 9.66, 14382
25.29, 101651.46, 0.19,-0.54, 9.62, 14387
25.29, 101651.46, 0.19,-0.57, 9.58, 14392
25.29, 101651.46, 0.19,-0.56, 9.62, 14397
25.29, 101651.46, 0.29,-0.57, 9.64, 14402
25.29, 101651.46, 0.17,-0.59, 9.62, 14407
25.29, 101651.46, 0.15,-0.57, 9.60, 14412
25.29, 101650.81, 0.25,-0.56, 9.60, 14424
25.29, 101650.81, 0.21,-0.52, 9.67, 14428
25.29, 101650.81, 0.13,-0.52, 9.66, 14433
25.29, 101650.81, 0.21,-0.50, 9.71, 14438
25.29, 101650.81, 0.31,-0.54, 9.64, 14443
25.29, 101650.81, 0.34,-0.50, 9.69, 14448
25.29, 101650.81, 0.23,-0.54, 9.66, 14453
25.29, 101654.77, 0.19,-0.56, 9.60, 14458
25.29, 101654.77, 0.23,-0.48, 9.64, 14463
25.29, 101654.77, 0.19,-0.54, 9.62, 14468
25.29, 101654.77, 0.25,-0.50, 9.75, 14473
25.29, 101654.77, 0.25,-0.57, 9.89, 14478
25.29, 101654.77, 0.23,-0.57, 9.67, 14483
25.29, 101654.77, 0.23,-0.59, 9.62, 14488
25.29, 101654.05, 0.21,-0.54, 9.64, 14493
25.29, 101654.05, 0.25,-0.50, 9.64, 14498
25.29, 101654.05, 0.17,-0.59, 9.52, 14503
25.29, 101654.05, 0.21,-0.65, 9.60, 14508
25.29, 101654.05, 0.21,-0.59, 9.58, 14513
25.29, 101654.05, 0.21,-0.59, 9.56, 14518
25.29, 101654.05, 0.27,-0.59, 9.66, 14523
25.29, 101655.09, 0.25,-0.50, 9.71, 14528
25.29, 101655.09, 0.19,-0.54, 9.69, 14533
25.29, 101655.09, 0.13,-0.52, 9.66, 14538
25.29, 101655.09, 0.23,-0.59, 9.62, 14543
25.29, 101655.09, 0.25,-0.56, 9.64, 14548
25.29, 101655.09, 0.19,-0.61, 9.64, 14553
25.29, 101655.09, 0.23,-0.61, 9.66, 14558
25.29, 101652.30, 0.27,-0.56, 9.66, 14563
25.29, 101652.30, 0.25,-0.54, 9.62, 14568
25.29, 101652.30, 0.31,-0.48, 9.62, 14573
25.29, 101652.30, 0.23,-0.54, 9.69, 14578
25.29, 101652.30, 0.19,-0.57, 9.60, 14583
25.29, 101652.30, 0.27,-0.52, 9.73, 14588
25.29, 101652.30, 0.27,-0.54, 9.71, 14593
25.29, 101652.30, 0.29,-0.59, 9.67, 14598
25.29, 101651.24, 0.15,-0.56, 9.48, 14603
25.29, 101651.24, 0.19,-0.50, 9.48, 14608
25.29, 101651.24, 0.25,-0.38, 9.58, 14613
25.29, 101651.24, 0.19,-0.57, 9.60, 14618
25.29, 101651.24, 0.23,-0.59, 9.64, 14623
25.29, 101651.24, 0.17,-0.61, 9.71, 14628
25.29, 101651.24, 0.25,-0.63, 9.62, 14633
25.29, 101654.59, 0.19,-0.59, 9.71, 14638
25.29, 101654.59, 0.21,-0.61, 9.64, 14643
25.29, 101654.59, 0.25,-0.57, 9.62, 14648
25.29, 101654.59, 0.25,-0.50, 9.64, 14653
25.29, 101654.59, 0.27,-0.46, 9.69, 14658
25.29, 101654.59, 0.21,-0.57, 9.62, 14663
25.29, 101654.59, 0.21,-0.57, 9.64, 14668
25.29, 101650.48, 0.21,-0.57, 9.64, 14673
25.29, 101650.48, 0.25,-0.61, 9.60, 14678
25.29, 101650.48, 0.19,-0.57, 9.56, 14683
25.29, 101650.48, 0.15,-0.57, 9.58, 14688
25.29, 101650.48, 0.23,-0.65, 9.67, 14693
25.29, 101650.48, 0.23,-0.67, 9.69, 14698
25.29, 101650.48, 0.15,-0.57, 9.66, 14703
25.29, 101651.57, 0.23,-0.57, 9.79, 14708
25.29, 101651.57, 0.25,-0.56, 9.66, 14713
25.29, 101651.57, 0.27,-0.50, 9.56, 14718
25.29, 101651.57, 0.17,-0.61, 9.64, 14723
25.29, 101651.57, 0.29,-0.61, 9.64, 14728
25.29, 101651.57, 0.29,-0.56, 9.62, 14733
25.29, 101651.57, 0.25,-0.57, 9.54, 14738
25.29, 101652.45, 0.25,-0.65, 9.69, 14743
25.29, 101652.45, 0.25,-0.48, 9.66, 14748
25.29, 101652.45, 0.21,-0.50, 9.62, 14753
25.29, 101652.45, 0.29,-0.56, 9.62, 14758
25.29, 101652.45, 0.19,-0.59, 9.64, 14763
25.29, 101652.45, 0.23,-0.54, 9.66, 14768
25.29, 101652.45, 0.27,-0.57, 9.62, 14773
25.29, 101652.23, 0.27,-0.56, 9.67, 14778
25.29, 101652.23, 0.17,-0.65, 9.64, 14783
25.29, 101652.23, 0.23,-0.57, 9.60, 14788
25.29, 101652.23, 0.19,-0.57, 9.64, 14793
25.29, 101652.23, 0.25,-0.54, 9.60, 14798
25.29, 101652.23, 0.27,-0.57, 9.62, 14803
25.29, 101652.23, 0.25,-0.54, 9.62, 14808
25.29, 101653.39, 0.29,-0.44, 9.58, 14813
25.29, 101653.39, 0.19,-0.54, 9.60, 14818
25.29, 101653.39, 0.25,-0.61, 9.45, 14823
25.29, 101653.39, 0.27,-0.52, 9.41, 14828
25.29, 101653.39, 0.27,-0.56, 9.54, 14833
25.29, 101653.39, 0.29,-0.57, 9.64, 14838
25.29, 101653.39, 0.29,-0.59, 9.62, 14843
25.29, 101650.75, 0.23,-0.59, 9.58, 14848
25.29, 101650.75, 0.23,-0.56, 9.75, 14853
25.29, 101650.75, 0.19,-0.63, 9.60, 14858
25.29, 101650.75, 0.23,-0.63, 9.66, 14863
25.29, 101650.75, 0.25,-0.59, 9.56, 14868
25.29, 101650.75, 0.27,-0.63, 9.66, 14873
25.29, 101650.75, 0.15,-0.57, 9.66, 14878
25.29, 101651.08, 0.15,-0.59, 9.69, 14883
25.29, 101651.08, 0.19,-0.57, 9.67, 14888
25.29, 101651.08, 0.27,-0.57, 9.66, 14893
25.29, 101651.08, 0.27,-0.57, 9.67, 14898
25.29, 101651.08, 0.15,-0.54, 9.64, 14903
25.29, 101651.08, 0.19,-0.50, 9.60, 14908
25.29, 101651.08, 0.27,-0.54, 9.64, 14913
25.29, 101652.39, 0.21,-0.50, 9.71, 14918
25.29, 101653.28, 0.25,-0.52, 9.56, 14926
25.29, 101653.28, 0.25,-0.48, 9.60, 14930
25.29, 101653.28, 0.27,-0.56, 9.66, 14935
25.29, 101653.28, 0.21,-0.63, 9.66, 14940
25.29, 101653.28, 0.21,-0.65, 9.64, 14945
25.29, 101653.28, 0.25,-0.63, 9.62, 14950
25.29, 101652.52, 0.27,-0.65, 9.66, 14955
25.29, 101652.52, 0.21,-0.56, 9.67, 14960
25.29, 101652.52, 0.25,-0.57, 9.66, 14965
25.29, 101652.52, 0.27,-0.56, 9.64, 14970
25.29, 101652.52, 0.25,-0.61, 9.58, 14975
25.29, 101652.52, 0.17,-0.61, 9.64, 14980
25.29, 101652.52, 0.23,-0.63, 9.64, 14985
25.29, 101650.80, 0.21,-0.57, 9.69, 14990
25.29, 101650.80, 0.19,-0.52, 9.58, 14995
25.29, 101650.80, 0.17,-0.52, 9.66, 15000
25.29, 101650.80, 0.17,-0.54, 9.60, 15005
25.26, 101652.02, 0.21,-0.56, 9.67, 15083
25.26, 101652.02, 0.25,-0.52, 9.69, 15088
25.26, 101652.02, 0.23,-0.56, 9.66, 15093
25.26, 101649.26, 0.25,-0.54, 9.64, 15098
25.26, 101649.26, 0.23,-0.52, 9.67, 15103
25.26, 101649.26, 0.25,-0.54, 9.75, 15108
25.26, 101649.26, 0.17,-0.59, 9.66, 15113
25.26, 101649.26, 0.19,-0.59, 9.67, 15118
25.26, 101649.26, 0.21,-0.50, 9.64, 15123
25.26, 101649.26, 0.25,-0.57, 9.60, 15128
25.26, 101648.98, 0.17,-0.56, 9.62, 15133
25.26, 101648.98, 0.19,-0.59, 9.62, 15138
25.26, 101648.98, 0.21,-0.54, 9.67, 15143
25.26, 101648.98, 0.17,-0.54, 9.73, 15148
25.26, 101648.98, 0.15,-0.63, 9.62, 15153
25.26, 101648.98, 0.19,-0.48, 9.58, 15158
25.26, 101648.98, 0.19,-0.52, 9.64, 15163
25.26, 101649.26, 0.25,-0.67, 9.62, 15168
25.26, 101649.26, 0.19,-0.59, 9.58, 15173
25.26, 101649.26, 0.17,-0.57, 9.83, 15178
25.26, 101649.26, 0.21,-0.56, 9.58, 15183
25.26, 101649.26, 0.34,-0.59, 9.58, 15188
25.26, 101649.26, 0.31,-0.56, 9.60, 15193
25.26, 101649.26, 0.29,-0.61, 9.58, 15198
25.26, 101651.46, 0.19,-0.48, 9.62, 15203
25.26, 101651.46, 0.36,-0.59, 9.60, 15208
25.26, 101651.46, 0.25,-0.57, 9.62, 15213
25.26, 101651.46, 0.27,-0.61, 9.66, 15218
25.26, 101651.46, 0.19,-0.56, 9.69, 15223
25.26, 101651.46, 0.21,-0.56, 9.67, 15228
25.26, 101651.46, 0.29,-0.56, 9.69, 15233
25.26, 101653.17, 0.29,-0.57, 9.66, 15238
25.26, 101653.17, 0.29,-0.57, 9.58, 15243
25.26, 101653.17, 0.25,-0.63, 9.60, 15248
25.26, 101653.17, 0.21,-0.57, 9.60, 15253
25.26, 101653.17, 0.29,-0.52, 9.60, 15258
25.26, 101653.17, 0.29,-0.52, 9.67, 15263
25.26, 101653.17, 0.25,-0.50, 9.64, 15268
25.26, 101650.20, 0.23,-0.59, 9.62, 15273
25.26, 101650.20, 0.19,-0.65, 9.50, 15278
25.26, 101650.20, 0.23,-0.61, 9.58, 15283
25.26, 101650.20, 0.17,-0.61, 9.60, 15288
25.26, 101650.20, 0.15,-0.46, 9.48, 15293
25.26, 101650.20, 0.19,-0.52, 9.73, 15298
25.26, 101650.20, 0.15,-0.52, 9.67, 15303
25.26, 101650.20, 0.17,-0.61, 9.71, 15308
25.26, 101652.52, 0.23,-0.59, 9.62, 15313
25.26, 101652.52, 0.21,-0.61, 9.73, 15318
25.26, 101652.52, 0.21,-0.59, 9.62, 15323
25.26, 101652.52, 0.15,-0.54, 9.69, 15328
25.26, 101652.52, 0.21,-0.54, 9.67, 15333
25.26, 101652.52, 0.23,-0.50, 9.67, 15338
25.26, 101652.52, 0.23,-0.54, 9.69, 15343
25.26, 101653.89, 0.17,-0.56, 9.66, 15348
25.26, 101653.89, 0.19,-0.48, 9.62, 15353
25.26, 101653.89, 0.23,-0.57, 9.66, 15358
25.26, 101653.89, 0.21,-0.57, 9.64, 15363
25.26, 101653.89, 0.23,-0.56, 9.60, 15368
25.26, 101653.89, 0.29,-0.52, 9.71, 15373
25.26, 101653.89, 0.23,-0.56, 9.67, 15378
25.26, 101654.39, 0.15,-0.59, 9.67, 15383
25.26, 101654.39, 0.15,-0.52, 9.48, 15388
25.26, 101654.39, 0.19,-0.52, 9.67, 15393
25.26, 101654.39, 0.25,-0.56, 9.56, 15398
25.26, 101654.39, 0.27,-0.56, 9.52, 15403
25.26, 101654.39, 0.25,-0.57, 9.66, 15408
25.26, 101654.39, 0.25,-0.56, 9.64, 15413
25.26, 101655.05, 0.25,-0.56, 9.56, 15418
25.26, 101655.05, 0.21,-0.52, 9.60, 15423
25.26, 101655.05, 0.21,-0.54, 9.67, 15428
25.26, 101655.05, 0.21,-0.56, 9.60, 15433
25.26, 101655.05, 0.17,-0.50, 9.69, 15438
25.26, 101655.05, 0.17,-0.52, 9.66, 15443
25.26, 101655.05, 0.19,-0.50, 9.66, 15448
25.26, 101653.17, 0.21,-0.52, 9.58, 15453
25.26, 101653.17, 0.21,-0.54, 9.62, 15458
25.26, 101653.17, 0.25,-0.59, 9.64, 15463
25.26, 101653.17, 0.25,-0.56, 9.66, 15468
25.26, 101653.17, 0.19,-0.56, 9.62, 15473
25.26, 101653.17, 0.21,-0.57, 9.56, 15478
25.26, 101653.17, 0.13,-0.57, 9.64, 15483
25.26, 101653.50, 0.21,-0.56, 9.66, 15488
25.26, 101653.50, 0.29,-0.61, 9.66, 15493
25.26, 101653.50, 0.19,-0.59, 9.60, 15501
25.26, 101653.50, 0.15,-0.61, 9.69, 15505
25.26, 101653.50, 0.11,-0.61, 9.66, 15510
25.26, 101653.50, 0.21,-0.56, 9.62, 15515
25.26, 101653.50, 0.21,-0.48, 9.62, 15520
25.26, 101655.05, 0.23,-0.50, 9.66, 15525
25.26, 101655.05, 0.19,-0.61, 9.64, 15530
25.26, 101655.05, 0.23,-0.52, 9.66, 15535
25.26, 101655.05, 0.33,-0.56, 9.56, 15540
25.26, 101655.05, 0.33,-0.56, 9.66, 15545
25.26, 101655.05, 0.38,-0.52, 9.60, 15550
25.26, 101655.05, 0.27,-0.56, 9.66, 15555
25.26, 101655.48, 0.17,-0.52, 9.64, 15560
25.26, 101655.48, 0.21,-0.48, 9.64, 15565
25.26, 101655.48, 0.25,-0.54, 9.62, 15570
25.26, 101655.48, 0.29,-0.50, 9.62, 15575
25.26, 101655.48, 0.23,-0.57, 9.69, 15580
25.26, 101655.48, 0.27,-0.56, 9.71, 15585
25.26, 101655.48, 0.27,-0.56, 9.54, 15590
25.26, 101654.88, 0.27,-0.59, 9.60, 15595
25.26, 101654.88, 0.19,-0.52, 9.48, 15600
25.26, 101654.88, 0.13,-0.48, 9.41, 15605
25.26, 101654.88, 0.27,-0.54, 9.46, 15610
25.26, 101654.88, 0.23,-0.48, 9.64, 15615
25.26, 101654.88, 0.21,-0.56, 9.66, 15620
25.26, 101654.88, 0.27,-0.63, 9.64, 15625
25.26, 101656.68, 0.17,-0.54, 9.52, 15630
25.26, 101656.68, 0.19,-0.50, 9.69, 15635
25.26, 101656.68, 0.17,-0.54, 9.56, 15640
25.26, 101656.68, 0.21,-0.54, 9.69, 15645
25.26, 101656.68, 0.23,-0.54, 9.56, 15650
25.26, 101656.68, 0.25,-0.61, 9.67, 15655
25.26, 101656.68, 0.25,-0.57, 9.62, 15660
25.26, 101654.82, 0.21,-0.56, 9.60, 15665
25.26, 101654.82, 0.25,-0.56, 9.56, 15670
25.26, 101654.82, 0.15,-0.59, 9.64, 15675
25.26, 101654.82, 0.19,-0.56, 9.64, 15680
25.26, 101654.82, 0.21,-0.50, 9.62, 15685
25.26, 101654.82, 0.27,-0.57, 9.60, 15690
25.26, 101654.82, 0.23,-0.59, 9.56, 15695
25.26, 101655.47, 0.21,-0.56, 9.58, 15700
25.26, 101655.47, 0.27,-0.57, 9.62, 15705
25.26, 101655.47, 0.27,-0.67, 9.67, 15710
25.26, 101655.47, 0.23,-0.46, 9.64, 15715
25.26, 101655.47, 0.21,-0.61, 9.73, 15720
25.26, 101655.47, 0.25,-0.54, 9.83, 15725
25.26, 101655.47, 0.25,-0.56, 9.69, 15730
25.26, 101656.02, 0.31,-0.59, 9.67, 15735
25.26, 101656.02, 0.17,-0.57, 9.73, 15740
25.26, 101656.02, 0.25,-0.67, 9.60, 15745
25.26, 101656.02, 0.25,-0.67, 9.67, 15750
25.26, 101656.02, 0.25,-0.59, 9.75, 15755
25.26, 101656.02, 0.19,-0.56, 9.60, 15760
25.26, 101656.02, 0.15,-0.54, 9.62, 15765
25.26, 101656.02, 0.21,-0.54, 9.60, 15770
25.26, 101656.62, 0.21,-0.50, 9.67, 15775
25.26, 101656.62, 0.23,-0.59, 9.69, 15780
25.26, 101656.62, 0.21,-0.57, 9.60, 15785
25.26, 101656.62, 0.25,-0.54, 9.73, 15790
25.26, 101656.62, 0.29,-0.59, 9.60, 15795
25.26, 101656.62, 0.21,-0.48, 9.69, 15800
25.26, 101656.62, 0.29,-0.61, 9.64, 15805
25.26, 101655.20, 0.27,-0.59, 9.62, 15810
25.26, 101655.20, 0.17,-0.59, 9.60, 15815
25.26, 101655.20, 0.21,-0.56, 9.54, 15820
25.26, 101655.20, 0.21,-0.50, 9.60, 15825
25.26, 101655.20, 0.25,-0.52, 9.69, 15830
25.26, 101655.20, 0.33,-0.50, 9.58, 15835
25.26, 101655.20, 0.23,-0.52, 9.45, 15840
25.26, 101653.88, 0.21,-0.54, 9.52, 15845
25.26, 101653.88, 0.25,-0.54, 9.62, 15850
25.26, 101653.88, 0.27,-0.54, 9.58, 15855
25.26, 101653.88, 0.21,-0.61, 9.66, 15860
25.26, 101653.88, 0.23,-0.59, 9.62, 15865
25.26, 101653.88, 0.21,-0.63, 9.56, 15870
25.26, 101653.88, 0.21,-0.57, 9.48, 15875
25.26, 101654.05, 0.23,-0.52, 9.60, 15880
25.26, 101654.05, 0.23,-0.54, 9.62, 15885
25.26, 101654.05, 0.15,-0.57, 9.60, 15890
25.26, 101654.05, 0.15,-0.57, 9.60, 15895
25.26, 101654.05, 0.10,-0.57, 9.58, 15900
25.26, 101654.05, 0.19,-0.57, 9.66, 15905
25.26, 101654.05, 0.11,-0.48, 9.60, 15910
25.26, 101653.39, 0.17,-0.56, 9.64, 15915
25.26, 101653.39, 0.17,-0.56, 9.73, 15920
25.26, 101653.39, 0.13,-0.56, 9.62, 15925
25.26, 101653.39, 0.23,-0.57, 9.54, 15930
25.26, 101653.39, 0.21,-0.48, 9.67, 15935
25.26, 101653.39, 0.21,-0.61, 9.85, 15940
25.26, 101653.39, 0.21,-0.61, 9.79, 15945
25.26, 101652.50, 0.25,-0.57, 9.69, 15950
25.26, 101652.50, 0.29,-0.57, 9.71, 15955
25.26, 101652.50, 0.27,-0.56, 9.67, 15960
25.26, 101652.50, 0.29,-0.57, 9.62, 15965
25.26, 101652.50, 0.33,-0.56, 9.64, 15970
25.26, 101652.50, 0.33,-0.57, 9.58, 15975
25.26, 101652.50, 0.25,-0.56, 9.60, 15980
25.26, 101653.16, 0.21,-0.56, 9.60, 15985
25.26, 101653.16, 0.27,-0.57, 9.64, 15990
25.26, 101653.16, 0.25,-0.54, 9.56, 15995
25.26, 101653.16, 0.17,-0.54, 9.60, 16003
25.26, 101653.16, 0.19,-0.50, 9.66, 16007
25.26, 101653.16, 0.21,-0.59, 9.60, 16012
25.26, 101653.16, 0.13,-0.57, 9.62, 16017
25.26, 101652.90, 0.13,-0.54, 9.56, 16022
25.26, 101652.90, 0.21,-0.65, 9.73, 16027
25.26, 101652.90, 0.25,-0.57, 9.62, 16032
25.26, 101652.90, 0.23,-0.56, 9.54, 16037
25.26, 101652.90, 0.23,-0.56, 9.67, 16042
25.26, 101652.90, 0.21,-0.56, 9.67, 16047
25.26, 101652.90, 0.21,-0.52, 9.81, 16052
25.26, 101657.34, 0.17,-0.57, 9.73, 16057
25.26, 101657.34, 0.21,-0.59, 9.66, 16062
25.26, 101657.34, 0.23,-0.57, 9.58, 16067
25.26, 101657.34, 0.21,-0.59, 9.73, 16072
25.26, 101657.34, 0.19,-0.50, 9.67, 16077
25.26, 101657.34, 0.27,-0.54, 9.67, 16082
25.26, 101657.34, 0.21,-0.50, 9.66, 16087
25.26, 101653.98, 0.21,-0.52, 9.64, 16092
25.26, 101653.98, 0.17,-0.56, 9.60, 16097
25.26, 101653.98, 0.27,-0.52, 9.66, 16102
25.26, 101653.98, 0.31,-0.48, 9.54, 16107
25.26, 101653.98, 0.23,-0.61, 9.56, 16112
25.26, 101653.98, 0.27,-0.56, 9.66, 16117
25.26, 101653.98, 0.19,-0.59, 9.52, 16122
25.26, 101652.23, 0.21,-0.54, 9.54, 16127
25.26, 101652.23, 0.19,-0.57, 9.66, 16132
25.26, 101652.23, 0.21,-0.63, 9.64, 16137
25.26, 101652.23, 0.23,-0.56, 9.56, 16142
25.26, 101652.23, 0.27,-0.54, 9.67, 16147
25.26, 101652.23, 0.23,-0.56, 9.56, 16152
25.26, 101652.23, 0.17,-0.50, 9.45, 16157
25.26, 101654.80, 0.21,-0.57, 9.54, 16162
25.26, 101654.80, 0.21,-0.59, 9.66, 16167
25.26, 101654.80, 0.21,-0.56, 9.66, 16172
25.26, 101654.80, 0.19,-0.54, 9.69, 16177
25.26, 101654.80, 0.19,-0.56, 9.62, 16182
25.26, 101654.80, 0.25,-0.52, 9.71, 16187
25.26, 101654.80, 0.19,-0.57, 9.56, 16192
25.26, 101657.01, 0.17,-0.57, 9.64, 16197
25.26, 101657.01, 0.17,-0.56, 9.67, 16202
25.26, 101657.01, 0.19,-0.59, 9.58, 16207
25.26, 101657.01, 0.23,-0.54, 9.60, 16212
25.26, 101657.01, 0.27,-0.56, 9.58, 16217
25.26, 101657.01, 0.23,-0.59, 9.64, 16222
25.26, 101657.01, 0.25,-0.52, 9.56, 16227
25.26, 101654.97, 0.31,-0.56, 9.66, 16232
25.26, 101654.97, 0.25,-0.54, 9.71, 16237
25.26, 101654.97, 0.25,-0.54, 9.66, 16242
25.26, 101654.97, 0.23,-0.52, 9.46, 16247
25.26, 101654.97, 0.25,-0.50, 9.71, 16252
25.26, 101654.97, 0.29,-0.52, 9.79, 16257
25.26, 101654.97, 0.21,-0.52, 9.81, 16262
25.26, 101654.97, 0.27,-0.52, 9.69, 16267
25.26, 101653.72, 0.31,-0.65, 9.64, 16272
25.26, 101653.72, 0.23,-0.59, 9.62, 16277
25.26, 101653.72, 0.23,-0.57, 9.73, 16282
25.26, 101653.72, 0.19,-0.57, 9.67, 16287
25.26, 101653.72, 0.15,-0.61, 9.67, 16292
25.26, 101653.72, 0.17,-0.56, 9.56, 16297
25.26, 101653.72, 0.25,-0.57, 9.54, 16302
25.26, 101654.22, 0.25,-0.56, 9.64, 16307
25.26, 101654.22, 0.23,-0.54, 9.64, 16312
25.26, 101654.22, 0.23,-0.54, 9.69, 16317
25.26, 101654.22, 0.23,-0.56, 9.69, 16322
25.26, 101654.22, 0.17,-0.59, 9.64, 16327
25.26, 101654.22, 0.15,-0.52, 9.64, 16332
25.26, 101654.22, 0.13,-0.48, 9.69, 16337
25.26, 101656.84, 0.21,-0.56, 9.64, 16342
25.26, 101656.84, 0.15,-0.56, 9.52, 16347
25.26, 101656.84, 0.13,-0.52, 9.62, 16352
25.26, 101656.84, 0.17,-0.59, 9.66, 16357
25.26, 101656.84, 0.23,-0.63, 9.67, 16362
25.26, 101656.84, 0.29,-0.59, 9.83, 16367
25.26, 101656.84, 0.25,-0.54, 9.58, 16372
25.26, 101657.06, 0.29,-0.59, 9.58, 16377
25.26, 101657.06, 0.25,-0.48, 9.58, 16382
25.26, 101657.06, 0.13,-0.48, 9.64, 16387
25.26, 101657.06, 0.23,-0.52, 9.71, 16392
25.26, 101657.06, 0.23,-0.50, 9.67, 16397
25.26, 101657.06, 0.25,-0.57, 9.60, 16402
25.26, 101657.06, 0.27,-0.54, 9.56, 16407
25.26, 101653.39, 0.21,-0.56, 9.69, 16412
25.26, 101653.39, 0.21,-0.59, 9.66, 16417
25.26, 101653.39, 0.21,-0.57, 9.64, 16422
25.26, 101653.39, 0.27,-0.56, 9.66, 16427
25.26, 101653.39, 0.25,-0.57, 9.62, 16432
25.26, 101653.39, 0.17,-0.57, 9.62, 16437
25.26, 101653.39, 0.19,-0.63, 9.69, 16442
25.26, 101652.90, 0.21,-0.52, 9.62, 16447
25.26, 101652.90, 0.23,-0.61, 9.56, 16452
25.26, 101652.90, 0.27,-0.67, 9.50, 16457
25.26, 101652.90, 0.27,-0.56, 9.62, 16462
25.26, 101652.90, 0.27,-0.54, 9.71, 16467
25.26, 101652.90, 0.19,-0.54, 9.54, 16472
25.26, 101652.90, 0.23,-0.50, 9.50, 16477
25.26, 101654.71, 0.23,-0.54, 9.56, 16482
25.26, 101654.71, 0.23,-0.52, 9.60, 16487
25.26, 101654.71, 0.21,-0.52, 9.67, 16492
25.26, 101654.71, 0.23,-0.54, 9.60, 16497
25.26, 101654.71, 0.15,-0.54, 9.62, 16507
25.26, 101654.71, 0.15,-0.56, 9.60, 16511
25.26, 101652.56, 0.23,-0.63, 9.56, 16516
25.26, 101652.56, 0.23,-0.52, 9.67, 16521
25.26, 101652.56, 0.21,-0.56, 9.64, 16526
25.26, 101652.56, 0.33,-0.50, 9.58, 16531
25.26, 101652.56, 0.23,-0.54, 9.48, 16536
25.26, 101652.56, 0.13,-0.59, 9.66, 16541
25.26, 101652.56, 0.23,-0.54, 9.66, 16546
25.26, 101652.56, 0.25,-0.59, 9.64, 16551
25.26, 101652.23, 0.27,-0.44, 9.67, 16556
25.26, 101652.23, 0.19,-0.54, 9.66, 16561
25.26, 101652.23, 0.23,-0.54, 9.64, 16566
25.26, 101652.23, 0.27,-0.54, 9.64, 16571
25.26, 101652.23, 0.27,-0.59, 9.62, 16576
25.26, 101652.23, 0.23,-0.54, 9.60, 16581
25.26, 101652.23, 0.25,-0.48, 9.64, 16586
25.26, 101655.03, 0.25,-0.48, 9.64, 16591
25.26, 101655.03, 0.23,-0.50, 9.62, 16596
25.26, 101655.03, 0.23,-0.52, 9.62, 16601
25.26, 101655.03, 0.25,-0.54, 9.64, 16606
25.26, 101655.03, 0.21,-0.59, 9.66, 16611
25.26, 101655.03, 0.15,-0.59, 9.60, 16616
25.26, 101655.03, 0.23,-0.65, 9.67, 16621
25.26, 101652.07, 0.23,-0.52, 9.67, 16626
25.26, 101652.07, 0.23,-0.59, 9.79, 16631
25.26, 101652.07, 0.21,-0.61, 9.85, 16636
25.26, 101652.07, 0.17,-0.54, 9.75, 16641
25.26, 101652.07, 0.19,-0.52, 9.75, 16646
25.26, 101652.07, 0.19,-0.54, 9.71, 16651
25.26, 101652.07, 0.21,-0.54, 9.62, 16656
25.26, 101651.13, 0.23,-0.48, 9.60, 16661
25.26, 101651.13, 0.19,-0.54, 9.64, 16666
25.26, 101651.13, 0.19,-0.54, 9.62, 16671
25.26, 101651.13, 0.25,-0.57, 9.60, 16676
25.26, 101651.13, 0.19,-0.57, 9.60, 16681
25.26, 101651.13, 0.23,-0.48, 9.62, 16686
25.26, 101651.13, 0.19,-0.54, 9.66, 16691
25.26, 101654.22, 0.23,-0.50, 9.60, 16696
25.26, 101654.22, 0.27,-0.57, 9.69, 16701
25.26, 101654.22, 0.23,-0.50, 9.66, 16706
25.26, 101654.22, 0.23,-0.56, 9.60, 16711
25.26, 101654.22, 0.17,-0.56, 9.58, 16716
25.26, 101654.22, 0.27,-0.52, 9.50, 16721
25.26, 101654.22, 0.21,-0.52, 9.58, 16726
25.26, 101650.75, 0.21,-0.61, 9.73, 16731
25.26, 101650.75, 0.19,-0.69, 9.67, 16736
25.26, 101650.75, 0.15,-0.59, 9.54, 16741
25.26, 101650.75, 0.15,-0.56, 9.60, 16746
25.26, 101650.75, 0.15,-0.57, 9.64, 16751
25.26, 101650.75, 0.21,-0.63, 9.64, 16756
25.26, 101650.75, 0.23,-0.57, 9.58, 16761
25.26, 101652.41, 0.17,-0.57, 9.60, 16766
25.26, 101652.41, 0.23,-0.59, 9.69, 16771
25.26, 101652.41, 0.23,-0.59, 9.71, 16776
25.26, 101652.41, 0.19,-0.61, 9.69, 16781
25.26, 101652.41, 0.15,-0.52, 9.67, 16786
25.26, 101652.41, 0.23,-0.56, 9.67, 16791
25.26, 101652.41, 0.25,-0.56, 9.66, 16796
25.26, 101651.58, 0.25,-0.56, 9.66, 16801
25.26, 101651.58, 0.23,-0.52, 9.66, 16806
25.26, 101651.58, 0.17,-0.57, 9.66, 16811
25.26, 101651.58, 0.25,-0.57, 9.67, 16816
25.26, 101651.58, 0.25,-0.56, 9.66, 16821
25.26, 101651.58, 0.27,-0.46, 9.60, 16826
25.26, 101651.58, 0.29,-0.50, 9.66, 16831
25.26, 101653.32, 0.29,-0.57, 9.50, 16836
25.26, 101653.32, 0.31,-0.63, 9.60, 16841
25.26, 101653.32, 0.29,-0.56, 9.67, 16846
25.26, 101653.32, 0.15,-0.59, 9.46, 16851
25.26, 101653.32, 0.17,-0.54, 9.60, 16856
25.26, 101653.32, 0.25,-0.59, 9.71, 16861
25.26, 101653.32, 0.27,-0.57, 9.71, 16866
25.26, 101653.32, 0.19,-0.59, 9.66, 16871
25.26, 101652.41, 0.25,-0.57, 9.67, 16876
25.26, 101652.41, 0.23,-0.57, 9.62, 16881
25.26, 101652.41, 0.27,-0.52, 9.66, 16886
25.26, 101652.41, 0.21,-0.56, 9.62, 16891
25.26, 101652.41, 0.23,-0.54, 9.56, 16896
25.26, 101652.41, 0.25,-0.59, 9.62, 16901
25.26, 101652.41, 0.27,-0.57, 9.67, 16906
25.26, 101654.04, 0.21,-0.56, 9.66, 16911
25.26, 101654.04, 0.23,-0.57, 9.64, 16916
25.26, 101654.04, 0.19,-0.57, 9.67, 16921
25.26, 101654.04, 0.17,-0.56, 9.58, 16926
25.26, 101654.04, 0.19,-0.52, 9.52, 16931
25.26, 101654.04, 0.19,-0.57, 9.73, 16936
25.26, 101654.04, 0.23,-0.52, 9.64, 16941
25.26, 101655.20, 0.23,-0.57, 9.60, 16946
25.26, 101655.20, 0.21,-0.56, 9.64, 16951
25.26, 101655.20, 0.25,-0.50, 9.67, 16956
25.26, 101655.20, 0.23,-0.48, 9.73, 16961
25.26, 101655.20, 0.19,-0.61, 9.81, 16966
25.26, 101655.20, 0.19,-0.61, 9.69, 16971
25.26, 101655.20, 0.19,-0.61, 9.60, 16976
25.26, 101651.41, 0.21,-0.56, 9.64, 16981
25.26, 101651.41, 0.23,-0.57, 9.54, 16986
25.26, 101651.41, 0.31,-0.50, 9.54, 16991
25.26, 101651.41, 0.25,-0.50, 9.69, 16996
25.26, 101651.41, 0.21,-0.52, 9.62, 17001
25.26, 101651.41, 0.17,-0.56, 9.67, 17009
25.26, 101651.41, 0.25,-0.54, 9.62, 17013
25.26, 101652.56, 0.25,-0.56, 9.64, 17018
25.26, 101652.56, 0.27,-0.56, 9.66, 17023
25.26, 101652.56, 0.27,-0.54, 9.54, 17028
25.26, 101652.56, 0.27,-0.50, 9.60, 17033
25.26, 101652.56, 0.19,-0.54, 9.73, 17038
25.26, 101652.56, 0.21,-0.57, 9.52, 17043
25.26, 101652.56, 0.25,-0.50, 9.37, 17048
25.26, 101653.55, 0.19,-0.54, 9.54, 17053
25.26, 101653.55, 0.23,-0.59, 9.50, 17058
25.26, 101653.55, 0.25,-0.54, 9.62, 17063
25.26, 101653.55, 0.29,-0.56, 9.66, 17068
25.26, 101653.55, 0.23,-0.54, 9.58, 17073
25.26, 101653.55, 0.31,-0.57, 9.58, 17078
25.26, 101653.55, 0.29,-0.63, 9.60, 17083
25.26, 101653.72, 0.27,-0.59, 9.60, 17088
25.26, 101653.72, 0.19,-0.52, 9.71, 17093
25.26, 101653.72, 0.25,-0.50, 9.67, 17098
25.26, 101653.72, 0.21,-0.57, 9.60, 17103
25.26, 101653.72, 0.19,-0.54, 9.64, 17108
25.26, 101653.72, 0.19,-0.54, 9.62, 17113
25.26, 101653.72, 0.23,-0.56, 9.62, 17118
25.26, 101652.83, 0.23,-0.59, 9.56, 17123
25.26, 101652.83, 0.19,-0.63, 9.62, 17128
25.26, 101652.83, 0.19,-0.63, 9.62, 17133
25.26, 101652.83, 0.25,-0.57, 9.64, 17138
25.26, 101652.83, 0.15,-0.56, 9.66, 17143
25.26, 101652.83, 0.17,-0.56, 9.71, 17148
25.26, 101652.83, 0.17,-0.56, 9.69, 17153
25.26, 101653.05, 0.21,-0.56, 9.64, 17158
25.26, 101653.05, 0.21,-0.52, 9.69, 17163
25.26, 101653.05, 0.23,-0.57, 9.64, 17168
25.26, 101653.05, 0.17,-0.54, 9.66, 17173
25.26, 101653.05, 0.17,-0.54, 9.52, 17178
25.26, 101653.05, 0.17,-0.52, 9.64, 17183
25.26, 101653.05, 0.17,-0.48, 9.69, 17188
25.26, 101652.41, 0.23,-0.50, 9.58, 17193
25.26, 101652.41, 0.25,-0.57, 9.67, 17198
25.26, 101652.41, 0.25,-0.54, 9.62, 17203
25.26, 101652.41, 0.21,-0.59, 9.64, 17208
25.26, 101652.41, 0.19,-0.48, 9.52, 17213
25.26, 101652.41, 0.21,-0.54, 9.60, 17218
25.26, 101652.41, 0.25,-0.56, 9.62, 17223
25.26, 101653.66, 0.27,-0.52, 9.60, 17228
25.26, 101653.66, 0.25,-0.57, 9.60, 17233
25.26, 101653.66, 0.25,-0.57, 9.69, 17238
25.26, 101653.66, 0.21,-0.56, 9.71, 17243
25.26, 101653.66, 0.27,-0.50, 9.58, 17248
25.26, 101653.66, 0.23,-0.65, 9.58, 17253
25.26, 101653.66, 0.21,-0.59, 9.50, 17258
25.26, 101652.99, 0.23,-0.52, 9.56, 17263
25.26, 101652.99, 0.25,-0.56, 9.64, 17268
25.26, 101652.99, 0.23,-0.50, 9.52, 17273
25.26, 101652.99, 0.25,-0.50, 9.56, 17278
25.26, 101652.99, 0.21,-0.57, 9.54, 17283
25.26, 101652.99, 0.23,-0.56, 9.50, 17288
25.26, 101652.99, 0.27,-0.59, 9.62, 17293
25.26, 101654.86, 0.19,-0.59, 9.64, 17298
25.26, 101654.86, 0.17,-0.54, 9.64, 17303
25.26, 101654.86, 0.27,-0.54, 9.69, 17308
25.26, 101654.86, 0.17,-0.59, 9.66, 17313
25.26, 101654.86, 0.23,-0.57, 9.62, 17318
25.26, 101654.86, 0.19,-0.57, 9.64, 17323
25.26, 101654.86, 0.17,-0.61, 9.64, 17328
25.26, 101655.03, 0.21,-0.57, 9.67, 17333
25.26, 101655.03, 0.21,-0.46, 9.60, 17338
25.26, 101655.03, 0.15,-0.57, 9.52, 17343
25.26, 101655.03, 0.25,-0.54, 9.66, 17348
25.26, 101655.03, 0.21,-0.57, 9.52, 17353
25.26, 101655.03, 0.23,-0.54, 9.62, 17358
25.26, 101655.03, 0.27,-0.57, 9.52, 17363
25.26, 101655.03, 0.31,-0.59, 9.60, 17368
25.26, 101652.33, 0.27,-0.67, 9.60, 17373
25.26, 101652.33, 0.29,-0.56, 9.60, 17378
25.26, 101652.33, 0.27,-0.59, 9.62, 17383
25.26, 101652.33, 0.21,-0.42, 9.58, 17388
25.26, 101652.33, 0.23,-0.48, 9.67, 17393
25.26, 101652.33, 0.19,-0.48, 9.66, 17398
25.26, 101652.33, 0.27,-0.48, 9.66, 17403
25.26, 101654.92, 0.19,-0.54, 9.64, 17408
25.26, 101654.92, 0.17,-0.54, 9.67, 17413
25.26, 101654.92, 0.19,-0.54, 9.67, 17418
25.26, 101654.92, 0.23,-0.57, 9.71, 17423
25.26, 101654.92, 0.21,-0.50, 9.66, 17428
25.26, 101654.92, 0.27,-0.56, 9.66, 17433
25.26, 101654.92, 0.25,-0.48, 9.69, 17438
25.26, 101652.72, 0.23,-0.57, 9.67, 17443
25.26, 101652.72, 0.31,-0.50, 9.79, 17448
25.26, 101652.72, 0.25,-0.56, 9.56, 17453
25.26, 101652.72, 0.29,-0.48, 9.67, 17458
25.26, 101652.72, 0.19,-0.52, 9.62, 17463
25.26, 101652.72, 0.23,-0.54, 9.48, 17468
25.26, 101652.72, 0.23,-0.54, 9.58, 17473
25.26, 101652.83, 0.29,-0.52, 9.60, 17478
25.26, 101652.83, 0.27,-0.52, 9.52, 17483
25.26, 101652.83, 0.21,-0.48, 9.64, 17488
25.26, 101652.83, 0.15,-0.52, 9.62, 17493
25.26, 101652.83, 0.19,-0.57, 9.64, 17498
25.26, 101652.83, 0.23,-0.57, 9.62, 17503
25.26, 101653.70, 0.15,-0.54, 9.60, 17511
25.26, 101653.70, 0.21,-0.56, 9.67, 17515
25.26, 101653.70, 0.19,-0.56, 9.66, 17520
25.26, 101653.70, 0.17,-0.54, 9.58, 17525
25.26, 101653.70, 0.27,-0.59, 9.56, 17530
25.26, 101653.70, 0.25,-0.52, 9.69, 17535
25.26, 101653.70, 0.17,-0.57, 9.64, 17540
25.26, 101653.70, 0.19,-0.57, 9.50, 17545
25.26, 101652.05, 0.19,-0.57, 9.69, 17550
25.26, 101652.05, 0.19,-0.56, 9.43, 17555
25.26, 101652.05, 0.23,-0.56, 9.60, 17560
25.26, 101652.05, 0.27,-0.52, 9.60, 17565
25.26, 101652.05, 0.27,-0.56, 9.56, 17570
25.26, 101652.05, 0.15,-0.50, 9.58, 17575
25.26, 101652.05, 0.15,-0.48, 9.54, 17580
25.26, 101652.55, 0.23,-0.54, 9.56, 17585
25.26, 101652.55, 0.34,-0.52, 9.64, 17590
25.26, 101652.55, 0.27,-0.54, 9.69, 17595
25.26, 101652.55, 0.27,-0.57, 9.73, 17600
25.26, 101652.55, 0.27,-0.57, 9.67, 17605
25.26, 101652.55, 0.27,-0.57, 9.64, 17610
25.26, 101652.55, 0.21,-0.56, 9.64, 17615
25.26, 101650.91, 0.25,-0.56, 9.60, 17620
25.26, 101650.91, 0.27,-0.52, 9.67, 17625
25.26, 101650.91, 0.23,-0.52, 9.66, 17630
25.26, 101650.91, 0.23,-0.52, 9.71, 17635
25.26, 101650.91, 0.21,-0.48, 9.62, 17640
25.26, 101650.91, 0.27,-0.56, 9.54, 17645
25.26, 101650.91, 0.19,-0.59, 9.66, 17650
25.26, 101651.50, 0.23,-0.63, 9.75, 17655
25.26, 101651.50, 0.23,-0.59, 9.77, 17660
25.26, 101651.50, 0.17,-0.56, 9.71, 17665
25.26, 101651.50, 0.19,-0.56, 9.64, 17670
25.26, 101651.50, 0.23,-0.65, 9.62, 17675
25.26, 101651.50, 0.29,-0.63, 9.58, 17680
25.26, 101651.50, 0.25,-0.52, 9.62, 17685
25.26, 101652.39, 0.15,-0.59, 9.69, 17690
25.26, 101652.39, 0.23,-0.54, 9.69, 17695
25.26, 101652.39, 0.29,-0.57, 9.69, 17700
25.26, 101652.39, 0.29,-0.54, 9.60, 17705
25.26, 101652.39, 0.27,-0.59, 9.67, 17710
25.26, 101652.39, 0.25,-0.56, 9.64, 17715
25.26, 101652.39, 0.23,-0.50, 9.67, 17720
25.26, 101649.25, 0.19,-0.50, 9.64, 17725
25.26, 101649.25, 0.21,-0.48, 9.62, 17730
25.26, 101649.25, 0.27,-0.57, 9.67, 17735
25.26, 101649.25, 0.29,-0.56, 9.69, 17740
25.26, 101649.25, 0.23,-0.54, 9.67, 17745
25.26, 101649.25, 0.21,-0.59, 9.64, 17750
25.26, 101649.25, 0.17,-0.59, 9.62, 17755
25.26, 101652.05, 0.19,-0.59, 9.66, 17760
25.26, 101652.05, 0.19,-0.56, 9.50, 17765
25.26, 101652.05, 0.17,-0.59, 9.52, 17770
25.26, 101652.05, 0.21,-0.59, 9.50, 17775
25.26, 101652.05, 0.25,-0.54, 9.62, 17780
25.26, 101652.05, 0.23,-0.59, 9.66, 17785
25.26, 101652.05, 0.25,-0.54, 9.66, 17790
25.26, 101651.89, 0.27,-0.54, 9.66, 17795
25.26, 101651.89, 0.23,-0.61, 9.60, 17800
25.26, 101651.89, 0.25,-0.59, 9.67, 17805
25.26, 101651.89, 0.25,-0.52, 9.62, 17810
25.26, 101651.89, 0.25,-0.59, 9.67, 17815
25.26, 101651.89, 0.33,-0.56, 9.66, 17820
25.26, 101651.89, 0.25,-0.54, 9.64, 17825
25.26, 101653.27, 0.27,-0.52, 9.62, 17830
25.26, 101653.27, 0.21,-0.54, 9.60, 17835
25.26, 101653.27, 0.27,-0.56, 9.60, 17840
25.26, 101653.27, 0.29,-0.56, 9.77, 17845
25.26, 101653.27, 0.25,-0.56, 9.66, 17850
25.26, 101653.27, 0.27,-0.52, 9.64, 17855
25.26, 101653.27, 0.27,-0.52, 9.62, 17860
25.26, 101653.27, 0.23,-0.52, 9.66, 17865
25.26, 101652.61, 0.23,-0.57, 9.69, 17870
25.26, 101652.61, 0.31,-0.56, 9.64, 17875
25.26, 101652.61, 0.13,-0.57, 9.60, 17880
25.26, 101652.61, 0.17,-0.59, 9.66, 17885
25.26, 101652.61, 0.23,-0.52, 9.60, 17890
25.26, 101652.61, 0.13,-0.52, 9.64, 17895
25.26, 101652.61, 0.21,-0.57, 9.56, 17900
25.26, 101652.55, 0.21,-0.56, 9.73, 17905
25.26, 101652.55, 0.27,-0.56, 9.67, 17910
25.26, 101652.55, 0.25,-0.59, 9.67, 17915
25.26, 101652.55, 0.23,-0.57, 9.69, 17920
25.26, 101652.55, 0.17,-0.56, 9.67, 17925
25.26, 101652.55, 0.23,-0.56, 9.64, 17930
25.26, 101652.55, 0.23,-0.56, 9.62, 17935
25.26, 101652.77, 0.15,-0.59, 9.60, 17940
25.26, 101652.77, 0.21,-0.57, 9.66, 17945
25.26, 101652.77, 0.23,-0.61, 9.66, 17950
25.26, 101652.77, 0.25,-0.54, 9.67, 17955
25.26, 101652.77, 0.23,-0.44, 9.69, 17960
25.26, 101652.77, 0.21,-0.59, 9.73, 17965
25.26, 101652.77, 0.23,-0.56, 9.64, 17970
25.26, 101651.23, 0.23,-0.52, 9.69, 17975
25.26, 101651.23, 0.21,-0.61, 9.77, 17980
25.26, 101651.23, 0.25,-0.61, 9.67, 17985
25.26, 101651.23, 0.15,-0.57, 9.46, 17990
25.26, 101651.23, 0.19,-0.50, 9.58, 17995
25.26, 101651.23, 0.17,-0.46, 9.58, 18000
25.26, 101651.23, 0.17,-0.56, 9.56, 18005
25.26, 101650.41, 0.19,-0.52, 9.69, 18013
25.26, 101650.41, 0.19,-0.56, 9.73, 18017
25.26, 101650.41, 0.19,-0.61, 9.67, 18022
25.26, 101650.41, 0.15,-0.56, 9.54, 18027
25.26, 101650.41, 0.17,-0.52, 9.54, 18032
25.26, 101650.41, 0.21,-0.56, 9.62, 18037
25.26, 101650.41, 0.21,-0.56, 9.62, 18042
25.26, 101652.94, 0.23,-0.57, 9.60, 18047
25.26, 101652.94, 0.13,-0.56, 9.67, 18052
25.26, 101652.94, 0.23,-0.54, 9.64, 18057
25.26, 101652.94, 0.19,-0.59, 9.56, 18062
25.26, 101652.94, 0.21,-0.59, 9.62, 18067
25.26, 101652.94, 0.25,-0.59, 9.56, 18072
25.26, 101652.94, 0.25,-0.57, 9.54, 18077
25.26, 101651.17, 0.25,-0.63, 9.54, 18082
25.26, 101651.17, 0.31,-0.65, 9.60, 18087
25.26, 101651.17, 0.25,-0.46, 9.54, 18092
25.26, 101651.17, 0.31,-0.54, 9.66, 18097
25.26, 101651.17, 0.25,-0.59, 9.69, 18102
25.26, 101651.17, 0.19,-0.56, 9.66, 18107
25.26, 101651.17, 0.23,-0.52, 9.60, 18112
25.26, 101653.98, 0.23,-0.54, 9.64, 18117
25.26, 101653.98, 0.25,-0.57, 9.54, 18122
25.26, 101653.98, 0.25,-0.52, 9.64, 18127
25.26, 101653.98, 0.23,-0.54, 9.64, 18132
25.26, 101653.98, 0.25,-0.57, 9.58, 18137
25.26, 101653.98, 0.25,-0.67, 9.73, 18142
25.26, 101653.98, 0.17,-0.57, 9.69, 18147
25.26, 101651.56, 0.17,-0.57, 9.64, 18152
25.26, 101651.56, 0.27,-0.50, 9.62, 18157
25.26, 101651.56, 0.21,-0.52, 9.62, 18162
25.26, 101651.56, 0.31,-0.59, 9.62, 18167
25.26, 101651.56, 0.25,-0.54, 9.64, 18172
25.26, 101651.56, 0.25,-0.57, 9.66, 18177
25.26, 101651.56, 0.27,-0.56, 9.66, 18182
25.26, 101650.24, 0.21,-0.54, 9.64, 18187
25.26, 101650.24, 0.25,-0.61, 9.56, 18192
25.26, 101650.24, 0.15,-0.57, 9.60, 18197
25.26, 101650.24, 0.21,-0.54, 9.60, 18202
25.26, 101650.24, 0.19,-0.52, 9.75, 18207
25.26, 101650.24, 0.23,-0.50, 9.50, 18212
25.26, 101650.24, 0.25,-0.56, 9.77, 18217
25.26, 101650.67, 0.29,-0.56, 9.69, 18222
25.26, 101650.67, 0.27,-0.54, 9.62, 18227
25.26, 101650.67, 0.19,-0.50, 9.66, 18232
25.26, 101650.67, 0.23,-0.63, 9.58, 18237
25.26, 101650.67, 0.27,-0.54, 9.62, 18242
25.26, 101650.67, 0.25,-0.56, 9.62, 18247
25.26, 101650.67, 0.23,-0.52, 9.56, 18252
25.26, 101653.55, 0.27,-0.56, 9.64, 18257
25.26, 101653.55, 0.21,-0.56, 9.66, 18262
25.26, 101653.55, 0.25,-0.59, 9.67, 18267
25.26, 101653.55, 0.19,-0.56, 9.62, 18272
25.26, 101653.55, 0.21,-0.54, 9.66, 18277
25.26, 101653.55, 0.23,-0.54, 9.60, 18282
25.26, 101653.55, 0.19,-0.54, 9.60, 18287
25.26, 101652.77, 0.15,-0.54, 9.75, 18292
25.26, 101652.77, 0.23,-0.59, 9.71, 18297
25.26, 101652.77, 0.19,-0.50, 9.64, 18302
25.26, 101652.77, 0.23,-0.54, 9.71, 18307
25.26, 101652.77, 0.21,-0.61, 9.81, 18312
25.26, 101652.77, 0.23,-0.56, 9.79, 18317
25.26, 101652.77, 0.25,-0.54, 9.64, 18322
25.26, 101652.77, 0.13,-0.52, 9.73, 18327
25.26, 101651.95, 0.13,-0.61, 9.69, 18332
25.26, 101651.95, 0.23,-0.63, 9.75, 18337
25.26, 101651.95, 0.23,-0.57, 9.64, 18342
25.26, 101651.95, 0.17,-0.54, 9.54, 18347
25.26, 101651.95, 0.23,-0.52, 9.62, 18352
25.26, 101651.95, 0.25,-0.57, 9.66, 18357
25.26, 101651.95, 0.19,-0.56, 9.58, 18362
25.26, 101653.59, 0.15,-0.56, 9.67, 18367
25.26, 101653.59, 0.21,-0.59, 9.62, 18372
25.26, 101653.59, 0.25,-0.57, 9.64, 18377
25.26, 101653.59, 0.25,-0.57, 9.62, 18382
25.26, 101653.59, 0.25,-0.52, 9.66, 18387
25.26, 101653.59, 0.29,-0.57, 9.67, 18392
25.26, 101653.59, 0.33,-0.57, 9.62, 18397
25.26, 101651.56, 0.23,-0.52, 9.66, 18402
25.26, 101651.56, 0.27,-0.52, 9.66, 18407
25.26, 101651.56, 0.29,-0.56, 9.66, 18412
25.26, 101651.56, 0.27,-0.57, 9.67, 18417
25.26, 101651.56, 0.25,-0.65, 9.77, 18422
25.26, 101651.56, 0.21,-0.56, 9.67, 18427
25.26, 101651.56, 0.25,-0.56, 9.67, 18432
25.26, 101651.89, 0.27,-0.59, 9.46, 18437
25.26, 101651.89, 0.23,-0.61, 9.50, 18442
25.26, 101651.89, 0.23,-0.54, 9.64, 18447
25.26, 101651.89, 0.21,-0.50, 9.58, 18452
25.26, 101651.89, 0.19,-0.56, 9.62, 18457
25.26, 101651.89, 0.21,-0.52, 9.62, 18462
25.26, 101651.89, 0.23,-0.54, 9.64, 18467
25.26, 101652.50, 0.25,-0.61, 9.60, 18472
25.26, 101652.50, 0.21,-0.52, 9.67, 18477
25.26, 101652.50, 0.23,-0.59, 9.67, 18482
25.26, 101652.50, 0.21,-0.57, 9.67, 18487
25.26, 101652.50, 0.23,-0.57, 9.69, 18492
25.26, 101652.50, 0.25,-0.57, 9.66, 18497
25.26, 101652.50, 0.25,-0.57, 9.62, 18502
25.26, 101650.73, 0.23,-0.57, 9.58, 18507
25.26, 101650.73, 0.19,-0.61, 9.62, 18519
25.26, 101650.73, 0.17,-0.65, 9.66, 18523
25.26, 101650.73, 0.17,-0.57, 9.60, 18528
25.26, 101650.73, 0.15,-0.59, 9.62, 18533
25.26, 101650.73, 0.21,-0.52, 9.62, 18538
25.26, 101650.08, 0.27,-0.50, 9.62, 18543
25.26, 101650.08, 0.27,-0.52, 9.60, 18548
25.26, 101650.08, 0.27,-0.57, 9.60, 18553
25.26, 101650.08, 0.21,-0.61, 9.52, 18558
25.26, 101650.08, 0.25,-0.54, 9.60, 18563
25.26, 101650.08, 0.27,-0.59, 9.64, 18568
25.26, 101650.08, 0.25,-0.67, 9.66, 18573
25.26, 101650.02, 0.27,-0.50, 9.66, 18578
25.26, 101650.02, 0.29,-0.52, 9.79, 18583
25.26, 101650.02, 0.21,-0.56, 9.50, 18588
25.26, 101650.02, 0.13,-0.57, 9.60, 18593
25.26, 101650.02, 0.25,-0.57, 9.64, 18598
25.26, 101650.02, 0.25,-0.59, 9.62, 18603
25.26, 101650.02, 0.27,-0.56, 9.62, 18608
25.26, 101649.91, 0.19,-0.57, 9.56, 18613
25.26, 101649.91, 0.25,-0.57, 9.56, 18618
25.26, 101649.91, 0.21,-0.56, 9.67, 18623
25.26, 101649.91, 0.19,-0.50, 9.54, 18628
25.26, 101649.91, 0.21,-0.59, 9.62, 18633
25.26, 101649.91, 0.21,-0.54, 9.58, 18638
25.26, 101649.91, 0.25,-0.54, 9.58, 18643
25.26, 101651.23, 0.21,-0.56, 9.67, 18648
25.26, 101651.23, 0.25,-0.56, 9.62, 18653
25.26, 101651.23, 0.21,-0.52, 9.64, 18658
25.26, 101651.23, 0.23,-0.57, 9.62, 18663
25.26, 101651.23, 0.17,-0.57, 9.67, 18668
25.26, 101651.23, 0.21,-0.56, 9.52, 18673
25.26, 101651.23, 0.23,-0.56, 9.54, 18678
25.26, 101652.34, 0.23,-0.48, 9.35, 18683
25.26, 101652.34, 0.21,-0.57, 9.69, 18688
25.26, 101652.34, 0.21,-0.59, 9.56, 18693
25.26, 101652.34, 0.21,-0.56, 9.83, 18698
25.26, 101652.34, 0.13,-0.63, 9.64, 18703
25.26, 101652.34, 0.21,-0.50, 9.62, 18708
25.26, 101652.34, 0.21,-0.59, 9.62, 18713
25.26, 101652.17, 0.19,-0.61, 9.64, 18718
25.26, 101652.17, 0.17,-0.61, 9.73, 18723
25.26, 101652.17, 0.15,-0.65, 9.62, 18728
25.26, 101652.17, 0.19,-0.56, 9.69, 18733
25.26, 101652.17, 0.23,-0.59, 9.62, 18738
25.26, 101652.17, 0.21,-0.61, 9.62, 18743
25.26, 101652.17, 0.21,-0.59, 9.66, 18748
25.26, 101652.17, 0.21,-0.54, 9.64, 18753
25.26, 101651.06, 0.15,-0.52, 9.64, 18758
25.26, 101651.06, 0.13,-0.57, 9.64, 18763
25.26, 101651.06, 0.27,-0.57, 9.64, 18768
25.26, 101651.06, 0.25,-0.52, 9.64, 18773
25.26, 101651.06, 0.29,-0.46, 9.64, 18778
25.26, 101651.06, 0.25,-0.44, 9.64, 18783
25.26, 101651.06, 0.27,-0.50, 9.64, 18788
25.26, 101653.00, 0.27,-0.46, 9.62, 18793
25.26, 101653.00, 0.25,-0.52, 9.75, 18798
25.26, 101653.00, 0.25,-0.54, 9.77, 18803
25.26, 101653.00, 0.29,-0.57, 9.67, 18808
25.26, 101653.00, 0.27,-0.50, 9.73, 18813
25.26, 101653.00, 0.31,-0.52, 9.67, 18818
25.26, 101653.00, 0.31,-0.54, 9.60, 18823
25.26, 101651.84, 0.17,-0.48, 9.60, 18828
25.26, 101651.84, 0.23,-0.57, 9.66, 18833
25.26, 101651.84, 0.25,-0.61, 9.69, 18838
25.26, 101651.84, 0.25,-0.59, 9.66, 18843
25.26, 101651.84, 0.25,-0.50, 9.56, 18848
25.26, 101651.84, 0.23,-0.50, 9.58, 18853
25.26, 101651.84, 0.23,-0.52, 9.62, 18858
25.26, 101651.45, 0.25,-0.50, 9.67, 18863
25.26, 101651.45, 0.19,-0.54, 9.64, 18868
25.26, 101651.45, 0.23,-0.57, 9.62, 18873
25.26, 101651.45, 0.21,-0.57, 9.67, 18878
25.26, 101651.45, 0.21,-0.61, 9.66, 18883
25.26, 101651.45, 0.15,-0.61, 9.64, 18888
25.26, 101651.45, 0.15,-0.57, 9.60, 18893
25.26, 101651.29, 0.15,-0.59, 9.62, 18898
25.26, 101651.29, 0.15,-0.54, 9.64, 18903
25.26, 101651.29, 0.21,-0.44, 9.73, 18908
25.26, 101651.29, 0.23,-0.50, 9.62, 18913
25.26, 101651.29, 0.21,-0.56, 9.67, 18918
25.26, 101651.29, 0.19,-0.61, 9.73, 18923
25.26, 101651.29, 0.17,-0.59, 9.77, 18928
25.26, 101652.12, 0.19,-0.57, 9.60, 18933
25.26, 101652.12, 0.23,-0.54, 9.66, 18938
25.26, 101652.12, 0.21,-0.59, 9.60, 18943
25.26, 101652.12, 0.21,-0.52, 9.56, 18948
25.26, 101652.12, 0.19,-0.59, 9.62, 18953
25.26, 101652.12, 0.25,-0.57, 9.71, 18958
25.26, 101652.12, 0.25,-0.59, 9.67, 18963
25.26, 101650.73, 0.25,-0.59, 9.62, 18968
25.26, 101650.73, 0.23,-0.54, 9.69, 18973
25.26, 101650.73, 0.27,-0.52, 9.58, 18978
25.26, 101650.73, 0.27,-0.54, 9.62, 18983
25.26, 101650.73, 0.27,-0.50, 9.58, 18988
25.26, 101650.73, 0.27,-0.50, 9.71, 18993
25.26, 101650.73, 0.23,-0.59, 9.66, 18998
25.26, 101653.66, 0.21,-0.54, 9.66, 19003
25.26, 101653.66, 0.25,-0.54, 9.69, 19008
25.26, 101653.66, 0.21,-0.52, 9.69, 19013
25.26, 101653.66, 0.21,-0.56, 9.60, 19022
25.26, 101653.66, 0.29,-0.57, 9.60, 19027
25.26, 101653.66, 0.27,-0.48, 9.66, 19032
25.26, 101653.66, 0.25,-0.63, 9.67, 19037
25.26, 101654.25, 0.33,-0.59, 9.67, 19042
25.26, 101654.25, 0.21,-0.56, 9.62, 19047
25.26, 101654.25, 0.25,-0.57, 9.64, 19052
25.26, 101654.25, 0.21,-0.56, 9.69, 19057
25.26, 101654.25, 0.21,-0.57, 9.67, 19062
25.26, 101654.25, 0.23,-0.56, 9.66, 19067
25.26, 101654.25, 0.15,-0.48, 9.66, 19072
25.26, 101651.40, 0.21,-0.61, 9.64, 19077
25.26, 101651.40, 0.23,-0.56, 9.67, 19082
25.26, 101651.40, 0.17,-0.61, 9.46, 19087
25.26, 101651.40, 0.13,-0.61, 9.52, 19092
25.26, 101651.40, 0.21,-0.42, 9.56, 19097
25.26, 101651.40, 0.19,-0.50, 9.69, 19102
25.26, 101651.40, 0.15,-0.57, 9.50, 19107
25.26, 101651.45, 0.11,-0.52, 9.54, 19112
25.26, 101651.45, 0.19,-0.54, 9.66, 19117
25.26, 101651.45, 0.15,-0.48, 9.60, 19122
25.26, 101651.45, 0.23,-0.54, 9.60, 19127
25.26, 101651.45, 0.33,-0.54, 9.64, 19132
25.26, 101651.45, 0.29,-0.50, 9.60, 19137
25.26, 101651.45, 0.21,-0.57, 9.66, 19142
25.26, 101655.95, 0.29,-0.61, 9.64, 19147
25.26, 101655.95, 0.23,-0.57, 9.56, 19152
25.26, 101655.95, 0.25,-0.52, 9.62, 19157
25.26, 101655.95, 0.23,-0.50, 9.64, 19162
25.26, 101655.95, 0.21,-0.54, 9.64, 19167
25.26, 101655.95, 0.19,-0.52, 9.60, 19172
25.26, 101655.95, 0.27,-0.59, 9.62, 19177
25.26, 101654.31, 0.23,-0.52, 9.64, 19182
25.26, 101654.31, 0.25,-0.50, 9.69, 19187
25.26, 101654.31, 0.23,-0.50, 9.66, 19192
25.26, 101654.31, 0.25,-0.59, 9.67, 19197
25.26, 101654.31, 0.23,-0.67, 9.67, 19202
25.26, 101654.31, 0.29,-0.59, 9.62, 19207
25.26, 101654.31, 0.31,-0.57, 9.75, 19212
25.26, 101655.07, 0.31,-0.59, 9.71, 19217
25.26, 101655.07, 0.31,-0.54, 9.73, 19222
25.26, 101655.07, 0.27,-0.57, 9.58, 19227
25.26, 101655.07, 0.29,-0.52, 9.60, 19232
25.26, 101655.07, 0.31,-0.57, 9.60, 19237
25.26, 101655.07, 0.23,-0.57, 9.71, 19242
25.26, 101655.07, 0.29,-0.48, 9.64, 19247
25.26, 101655.25, 0.25,-0.54, 9.73, 19252
25.26, 101655.25, 0.19,-0.50, 9.67, 19257
25.26, 101655.25, 0.25,-0.54, 9.64, 19262
25.26, 101655.25, 0.21,-0.57, 9.58, 19267
25.26, 101655.25, 0.23,-0.54, 9.62, 19272
25.26, 101655.25, 0.21,-0.56, 9.64, 19277
25.26, 101655.25, 0.25,-0.54, 9.66, 19282
25.26, 101653.98, 0.19,-0.57, 9.66, 19287
25.26, 101653.98, 0.23,-0.56, 9.60, 19292
25.26, 101653.98, 0.21,-0.54, 9.62, 19297
25.26, 101653.98, 0.25,-0.50, 9.64, 19302
25.26, 101653.98, 0.19,-0.59, 9.62, 19307
25.26, 101653.98, 0.19,-0.52, 9.64, 19312
25.26, 101653.98, 0.19,-0.57, 9.62, 19317
25.26, 101653.98, 0.19,-0.56, 9.62, 19322
25.26, 101653.98, 0.13,-0.52, 9.62, 19327
25.26, 101653.98, 0.21,-0.52, 9.66, 19332
25.26, 101653.98, 0.21,-0.57, 9.66, 19337
25.26, 101653.98, 0.23,-0.54, 9.58, 19342
25.26, 101653.98, 0.25,-0.50, 9.58, 19347
25.26, 101653.98, 0.19,-0.46, 9.60, 19352
25.26, 101653.98, 0.00,-0.54, 9.62, 19357
25.26, 101654.30, 0.13,-0.56, 9.73, 19362
25.26, 101654.30, 0.21,-0.59, 9.69, 19367
25.26, 101654.30, 0.25,-0.57, 9.64, 19372
25.26, 101654.30, 0.23,-0.54, 9.69, 19377
25.26, 101654.30, 0.21,-0.56, 9.66, 19382
25.26, 101654.30, 0.13,-0.61, 9.67, 19387
25.26, 101654.30, 0.15,-0.52, 9.62, 19392
25.26, 101653.42, 0.19,-0.56, 9.67, 19397
25.26, 101653.42, 0.19,-0.54, 9.62, 19402
25.26, 101653.42, 0.21,-0.59, 9.62, 19407
25.26, 101653.42, 0.21,-0.61, 9.58, 19412
25.26, 101653.42, 0.25,-0.56, 9.64, 19417
25.26, 101653.42, 0.19,-0.56, 9.60, 19422
25.26, 101653.42, 0.23,-0.46, 9.69, 19427
25.26, 101654.25, 0.19,-0.50, 9.66, 19432
25.26, 101654.25, 0.27,-0.48, 9.73, 19437
25.26, 101654.25, 0.19,-0.52, 9.58, 19442
25.26, 101654.25, 0.21,-0.52, 9.60, 19447
25.26, 101654.25, 0.19,-0.56, 9.64, 19452
25.26, 101654.25, 0.23,-0.46, 9.79, 19457
25.26, 101654.25, 0.21,-0.57, 9.69, 19462
25.26, 101653.66, 0.27,-0.52, 9.69, 19467
25.26, 101653.66, 0.23,-0.54, 9.67, 19472
25.26, 101653.66, 0.21,-0.54, 9.73, 19477
25.26, 101653.66, 0.21,-0.59, 9.66, 19482
25.26, 101653.66, 0.19,-0.57, 9.56, 19487
25.26, 101653.66, 0.19,-0.59, 9.62, 19492
25.26, 101653.66, 0.25,-0.59, 9.58, 19497
25.26, 101651.62, 0.13,-0.56, 9.64, 19502
25.26, 101651.62, 0.25,-0.52, 9.67, 19507
25.26, 101651.62, 0.23,-0.59, 9.67, 19512
25.26, 101651.62, 0.17,-0.52, 9.69, 19517
25.26, 101651.62, 0.21,-0.54, 9.62, 19525
25.26, 101651.62, 0.23,-0.54, 9.58, 19529
25.26, 101651.62, 0.19,-0.57, 9.66, 19534
25.26, 101652.61, 0.23,-0.56, 9.58, 19539
25.26, 101652.61, 0.25,-0.57, 9.58, 19544
25.26, 101652.61, 0.23,-0.59, 9.71, 19549
25.26, 101652.61, 0.25,-0.44, 9.71, 19554
25.26, 101652.61, 0.29,-0.48, 9.69, 19559
25.26, 101652.61, 0.23,-0.54, 9.64, 19564
25.26, 101652.61, 0.19,-0.48, 9.67, 19569
25.26, 101653.33, 0.31,-0.54, 9.60, 19574
25.26, 101653.33, 0.25,-0.52, 9.64, 19579
25.26, 101653.33, 0.25,-0.56, 9.66, 19584
25.26, 101653.33, 0.31,-0.59, 9.69, 19589
25.26, 101653.33, 0.29,-0.52, 9.64, 19594
25.26, 101653.33, 0.19,-0.52, 9.62, 19599
25.26, 101653.33, 0.29,-0.57, 9.62, 19604
25.26, 101653.98, 0.25,-0.57, 9.66, 19609
25.26, 101653.98, 0.21,-0.46, 9.60, 19614
25.26, 101653.98, 0.25,-0.56, 9.62, 19619
25.26, 101653.98, 0.27,-0.50, 9.67, 19624
25.26, 101653.98, 0.19,-0.61, 9.75, 19629
25.26, 101653.98, 0.19,-0.56, 9.62, 19634
25.26, 101653.98, 0.33,-0.56, 9.81, 19639
25.26, 101650.91, 0.29,-0.57, 9.60, 19644
25.26, 101650.91, 0.15,-0.57, 9.50, 19649
25.26, 101650.91, 0.19,-0.56, 9.43, 19654
25.26, 101650.91, 0.15,-0.48, 9.62, 19659
25.26, 101650.91, 0.21,-0.54, 9.62, 19664
25.26, 101650.91, 0.23,-0.61, 9.58, 19669
25.26, 101650.91, 0.19,-0.52, 9.48, 19674
25.26, 101651.23, 0.11,-0.52, 9.62, 19679
25.26, 101651.23, 0.17,-0.57, 9.58, 19684
25.26, 101651.23, 0.19,-0.61, 9.60, 19689
25.26, 101651.23, 0.13,-0.63, 9.58, 19694
25.26, 101651.23, 0.21,-0.59, 9.62, 19699
25.26, 101651.23, 0.23,-0.56, 9.64, 19704
25.26, 101651.23, 0.19,-0.59, 9.67, 19709
25.26, 101650.24, 0.23,-0.54, 9.67, 19714
25.26, 101650.24, 0.17,-0.56, 9.64, 19719
25.26, 101650.24, 0.25,-0.54, 9.71, 19724
25.26, 101650.24, 0.27,-0.56, 9.67, 19729
25.26, 101650.24, 0.27,-0.56, 9.77, 19734
25.26, 101650.24, 0.19,-0.57, 9.71, 19739
25.26, 101650.24, 0.15,-0.52, 9.64, 19744
25.26, 101652.72, 0.19,-0.52, 9.56, 19749
25.26, 101652.72, 0.17,-0.57, 9.64, 19754
25.26, 101652.72, 0.25,-0.50, 9.60, 19759
25.26, 101652.72, 0.23,-0.54, 9.67, 19764
25.26, 101652.72, 0.25,-0.61, 9.45, 19769
25.26, 101652.72, 0.25,-0.52, 9.60, 19774
25.26, 101652.72, 0.27,-0.57, 9.60, 19779
25.26, 101651.84, 0.25,-0.59, 9.64, 19784
25.26, 101651.84, 0.23,-0.56, 9.60, 19789
25.26, 101651.84, 0.19,-0.50, 9.62, 19794
25.26, 101651.84, 0.19,-0.57, 9.62, 19799
25.26, 101651.84, 0.23,-0.56, 9.66, 19804
25.26, 101651.84, 0.21,-0.59, 9.54, 19809
25.26, 101651.84, 0.21,-0.61, 9.66, 19814
25.26, 101654.16, 0.19,-0.59, 9.64, 19819
25.26, 101654.16, 0.15,-0.61, 9.69, 19824
25.26, 101654.16, 0.15,-0.54, 9.66, 19829
25.26, 101654.16, 0.13,-0.54, 9.58, 19834
25.26, 101654.16, 0.11,-0.54, 9.62, 19839
25.26, 101654.16, 0.15,-0.61, 9.66, 19844
25.26, 101654.16, 0.19,-0.56, 9.67, 19849
25.26, 101654.16, 0.27,-0.57, 9.56, 19854
25.26, 101652.83, 0.27,-0.56, 9.66, 19859
25.26, 101652.83, 0.27,-0.57, 9.60, 19864
25.26, 101652.83, 0.29,-0.61, 9.50, 19869
25.26, 101652.83, 0.27,-0.57, 9.64, 19874
25.26, 101652.83, 0.33,-0.57, 9.71, 19879
25.26, 101652.83, 0.25,-0.65, 9.67, 19884
25.26, 101652.83, 0.29,-0.56, 9.64, 19889
25.26, 101652.83, 0.33,-0.50, 9.60, 19894
25.26, 101652.83, 0.36,-0.56, 9.67, 19899
25.26, 101652.83, 0.31,-0.54, 9.69, 19904
25.26, 101652.83, 0.27,-0.59, 9.60, 19909
25.26, 101652.83, 0.25,-0.59, 9.67, 19914
25.26, 101652.83, 0.29,-0.54, 9.62, 19919
25.26, 101652.83, 0.25,-0.52, 9.62, 19924
25.26, 101653.16, 0.29,-0.57, 9.62, 19929
25.26, 101653.16, 0.21,-0.54, 9.64, 19934
25.26, 101653.16, 0.27,-0.56, 9.64, 19939
25.26, 101653.16, 0.27,-0.57, 9.67, 19944
25.26, 101653.16, 0.23,-0.59, 9.66, 19949
25.26, 101653.16, 0.23,-0.57, 9.67, 19954
25.26, 101653.16, 0.25,-0.56, 9.64, 19959
25.26, 101655.25, 0.17,-0.54, 9.62, 19964
25.26, 101655.25, 0.13,-0.59, 9.62, 19969
25.26, 101655.25, 0.11,-0.56, 9.62, 19974
25.26, 101655.25, 0.15,-0.63, 9.66, 19979
25.26, 101655.25, 0.15,-0.57, 9.71, 19984
25.26, 101655.25, 0.25,-0.59, 9.67, 19989
25.26, 101655.25, 0.15,-0.59, 9.50, 19994
25.26, 101652.55, 0.15,-0.61, 9.54, 19999
25.26, 101652.55, 0.19,-0.57, 9.56, 20004
25.26, 101652.55, 0.27,-0.63, 9.67, 20009
25.26, 101652.55, 0.21,-0.46, 9.58, 20014
25.26, 101652.55, 0.21,-0.57, 9.56, 20019
25.26, 101652.55, 0.21,-0.52, 9.62, 20027
25.26, 101652.55, 0.21,-0.48, 9.69, 20031
25.26, 101653.59, 0.25,-0.54, 9.67, 20036
25.26, 101653.59, 0.31,-0.56, 9.75, 20041
25.26, 101653.59, 0.31,-0.54, 9.58, 20046
25.26, 101653.59, 0.23,-0.44, 9.50, 20051
25.26, 101653.59, 0.29,-0.50, 9.64, 20056
25.26, 101653.59, 0.40,-0.48, 9.66, 20061
25.26, 101653.59, 0.38,-0.48, 9.62, 20066
25.26, 101653.33, 0.23,-0.48, 9.39, 20071
25.26, 101653.33, 0.23,-0.56, 9.46, 20076
25.26, 101653.33, 0.29,-0.42, 9.60, 20081
25.26, 101653.33, 0.31,-0.50, 9.81, 20086
25.26, 101653.33, 0.36,-0.52, 9.77, 20091
25.26, 101653.33, 0.33,-0.56, 9.77, 20096
25.26, 101653.33, 0.19,-0.56, 9.73, 20101
25.26, 101653.66, 0.33,-0.54, 9.69, 20106
25.26, 101653.66, 0.23,-0.57, 9.56, 20111
25.26, 101653.66, 0.13,-0.48, 9.58, 20116
25.26, 101653.66, 0.23,-0.61, 9.60, 20121
25.26, 101653.66, 0.23,-0.61, 9.62, 20126
25.26, 101653.66, 0.23,-0.56, 9.56, 20131
25.26, 101653.66, 0.15,-0.54, 9.52, 20136
25.26, 101652.94, 0.17,-0.56, 9.60, 20141
25.26, 101652.94, 0.23,-0.52, 9.66, 20146
25.26, 101652.94, 0.17,-0.50, 9.62, 20151
25.26, 101652.94, 0.19,-0.56, 9.66, 20156
25.26, 101652.94, 0.17,-0.61, 9.69, 20161
25.26, 101652.94, 0.21,-0.61, 9.54, 20166
25.26, 101652.94, 0.19,-0.52, 9.52, 20171
25.26, 101653.33, 0.21,-0.56, 9.71, 20176
25.26, 101653.33, 0.15,-0.61, 9.77, 20181
25.26, 101653.33, 0.21,-0.59, 9.62, 20186
25.26, 101653.33, 0.11,-0.42, 9.64, 20191
25.26, 101653.33, 0.19,-0.46, 9.67, 20196
25.26, 101653.33, 0.15,-0.52, 9.67, 20201
25.26, 101653.33, 0.17,-0.56, 9.64, 20206
25.26, 101654.98, 0.11,-0.54, 9.64, 20211
25.26, 101654.98, 0.23,-0.50, 9.60, 20216
25.26, 101654.98, 0.23,-0.56, 9.64, 20221
25.26, 101654.98, 0.17,-0.52, 9.58, 20226
25.26, 101654.98, 0.08,-0.56, 9.62, 20231
25.26, 101654.98, 0.11,-0.57, 9.58, 20236
25.26, 101654.98, 0.15,-0.59, 9.62, 20241
25.26, 101654.48, 0.15,-0.65, 9.66, 20246
25.26, 101654.48, 0.10,-0.57, 9.62, 20251
25.26, 101654.48, 0.13,-0.52, 9.66, 20256
25.26, 101654.48, 0.15,-0.50, 9.64, 20261
25.26, 101654.48, 0.15,-0.52, 9.62, 20266
25.26, 101654.48, 0.13,-0.57, 9.73, 20271
25.26, 101654.48, 0.15,-0.57, 9.67, 20276
25.26, 101653.82, 0.15,-0.57, 9.60, 20281
25.26, 101653.82, 0.19,-0.56, 9.71, 20286
25.26, 101653.82, 0.19,-0.56, 9.62, 20291
25.26, 101653.82, 0.27,-0.54, 9.62, 20296
25.26, 101653.82, 0.21,-0.50, 9.50, 20301
25.26, 101653.82, 0.21,-0.54, 9.64, 20306
25.26, 101653.82, 0.31,-0.46, 9.66, 20311
25.26, 101652.83, 0.31,-0.44, 9.60, 20316
25.26, 101653.75, 0.23,-0.52, 9.41, 20321
25.26, 101653.75, 0.19,-0.56, 9.50, 20326
25.26, 101653.75, 0.31,-0.59, 9.69, 20331
25.26, 101653.75, 0.31,-0.61, 9.62, 20336
25.26, 101653.75, 0.27,-0.63, 9.64, 20341
25.26, 101653.75, 0.36,-0.56, 9.52, 20346
25.26, 101653.75, 0.34,-0.57, 9.62, 20351
25.26, 101653.33, 0.36,-0.50, 9.60, 20356
25.26, 101653.33, 0.31,-0.54, 9.67, 20361
25.26, 101653.33, 0.36,-0.59, 9.67, 20366
25.26, 101653.33, 0.34,-0.52, 9.62, 20371
25.26, 101653.33, 0.31,-0.52, 9.67, 20376
25.26, 101653.33, 0.25,-0.50, 9.71, 20381
25.26, 101653.33, 0.36,-0.54, 9.67, 20386
25.26, 101654.98, 0.38,-0.56, 9.56, 20391
25.26, 101654.98, 0.29,-0.57, 9.66, 20396
25.26, 101654.98, 0.31,-0.57, 9.62, 20401
25.26, 101654.98, 0.36,-0.59, 9.48, 20406
25.26, 101654.98, 0.38,-0.56, 9.56, 20411
25.26, 101654.98, 0.33,-0.54, 9.69, 20416
25.26, 101654.98, 0.33,-0.48, 9.50, 20421
25.26, 101655.73, 0.27,-0.61, 9.46, 20426
25.26, 101655.73, 0.29,-0.57, 9.46, 20431
25.26, 101655.73, 0.21,-0.52, 9.60, 20436
25.26, 101655.73, 0.34,-0.48, 9.66, 20441
25.26, 101655.73, 0.27,-0.56, 9.69, 20446
25.26, 101655.73, 0.25,-0.57, 9.66, 20451
25.26, 101655.73, 0.19,-0.54, 9.67, 20456
25.26, 101653.50, 0.19,-0.52, 9.64, 20461
25.26, 101653.50, 0.15,-0.59, 9.56, 20466
25.26, 101653.50, 0.19,-0.65, 9.67, 20471
25.26, 101653.50, 0.21,-0.54, 9.71, 20476
25.26, 101653.50, 0.23,-0.56, 9.73, 20481
25.26, 101653.50, 0.17,-0.56, 9.66, 20486
25.26, 101653.50, 0.15,-0.50, 9.64, 20491
25.26, 101652.94, 0.11,-0.52, 9.60, 20496
25.26, 101652.94, 0.17,-0.56, 9.66, 20501
25.26, 101652.94, 0.11,-0.59, 9.67, 20506
25.26, 101652.94, 0.23,-0.56, 9.69, 20511
25.26, 101652.94, 0.11,-0.52, 9.67, 20516
25.26, 101652.94, 0.11,-0.54, 9.54, 20521
25.26, 101652.94, 0.11,-0.44, 9.48, 20528
25.26, 101654.09, 0.15,-0.46, 9.58, 20533
25.26, 101654.09, 0.25,-0.61, 9.69, 20538
25.26, 101654.09, 0.11,-0.63, 9.73, 20543
25.26, 101654.09, 0.11,-0.56, 9.69, 20548
25.26, 101654.09, 0.10,-0.56, 9.58, 20553
25.26, 101654.09, 0.06,-0.57, 9.66, 20558
25.26, 101654.09, 0.19,-0.56, 9.66, 20563
25.26, 101655.41, 0.21,-0.54, 9.73, 20568
25.26, 101655.41, 0.23,-0.54, 9.67, 20573
25.26, 101655.41, 0.25,-0.50, 9.66, 20578
25.26, 101655.41, 0.27,-0.54, 9.64, 20583
25.26, 101655.41, 0.29,-0.56, 9.64, 20588
25.26, 101655.41, 0.23,-0.57, 9.62, 20593
25.26, 101655.41, 0.27,-0.54, 9.62, 20598
25.26, 101652.50, 0.27,-0.46, 9.67, 20603
25.26, 101652.50, 0.25,-0.50, 9.69, 20608
25.26, 101652.50, 0.27,-0.50, 9.73, 20613
25.26, 101652.50, 0.27,-0.48, 9.64, 20618
25.26, 101652.50, 0.31,-0.56, 9.64, 20623
25.26, 101652.50, 0.21,-0.54, 9.50, 20628
25.26, 101652.50, 0.29,-0.59, 9.56, 20633
25.26, 101653.66, 0.27,-0.57, 9.66, 20638
25.26, 101653.66, 0.25,-0.56, 9.62, 20643
25.26, 101653.66, 0.25,-0.52, 9.60, 20648
25.26, 101653.66, 0.27,-0.52, 9.66, 20653
25.26, 101653.66, 0.23,-0.48, 9.67, 20658
25.26, 101653.66, 0.25,-0.52, 9.67, 20663
25.26, 101653.66, 0.21,-0.48, 9.64, 20668
25.26, 101653.05, 0.25,-0.54, 9.69, 20673
25.26, 101653.05, 0.25,-0.54, 9.67, 20678
25.26, 101653.05, 0.27,-0.57, 9.58, 20683
25.26, 101653.05, 0.25,-0.56, 9.62, 20688
25.26, 101653.05, 0.27,-0.54, 9.66, 20693
25.26, 101653.05, 0.25,-0.61, 9.64, 20698
25.26, 101653.05, 0.25,-0.52, 9.66, 20703
25.26, 101653.50, 0.25,-0.56, 9.54, 20708
25.26, 101653.50, 0.15,-0.61, 9.64, 20713
25.26, 101653.50, 0.21,-0.63, 9.73, 20718
25.26, 101653.50, 0.17,-0.61, 9.67, 20723
25.26, 101653.50, 0.17,-0.59, 9.62, 20728
25.26, 101653.50, 0.15,-0.54, 9.50, 20733
25.26, 101653.50, 0.19,-0.57, 9.46, 20738
25.26, 101655.41, 0.25,-0.56, 9.71, 20743
25.26, 101655.41, 0.21,-0.67, 9.79, 20748
25.26, 101655.41, 0.19,-0.59, 9.71, 20753
25.26, 101655.41, 0.23,-0.63, 9.71, 20758
25.26, 101655.41, 0.31,-0.57, 9.64, 20763
25.26, 101655.41, 0.25,-0.50, 9.66, 20768
25.26, 101655.41, 0.17,-0.54, 9.69, 20773
25.26, 101654.08, 0.25,-0.56, 9.67, 20778
25.26, 101654.08, 0.29,-0.57, 9.62, 20783
25.26, 101654.08, 0.27,-0.56, 9.69, 20788
25.26, 101654.08, 0.21,-0.57, 9.71, 20793
25.26, 101654.08, 0.29,-0.57, 9.62, 20798
25.26, 101654.08, 0.19,-0.57, 9.60, 20803
25.26, 101654.08, 0.21,-0.56, 9.60, 20808
25.26, 101654.08, 0.27,-0.52, 9.60, 20813
25.26, 101656.28, 0.25,-0.57, 9.60, 20818
25.26, 101656.28, 0.31,-0.52, 9.66, 20823
25.26, 101656.28, 0.23,-0.46, 9.77, 20828
25.26, 101656.28, 0.23,-0.50, 9.62, 20833
25.26, 101656.28, 0.23,-0.56, 9.56, 20838
25.26, 101656.28, 0.21,-0.56, 9.64, 20843
25.26, 101656.28, 0.27,-0.54, 9.60, 20848
25.26, 101653.50, 0.19,-0.56, 9.58, 20853
25.26, 101653.50, 0.23,-0.48, 9.79, 20858
25.26, 101653.50, 0.27,-0.57, 9.62, 20863
25.26, 101653.50, 0.25,-0.61, 9.62, 20868
25.26, 101653.50, 0.13,-0.54, 9.60, 20873
25.26, 101653.50, 0.15,-0.46, 9.62, 20878
25.26, 101653.50, 0.19,-0.50, 9.69, 20883
25.26, 101651.34, 0.25,-0.57, 9.64, 20888
25.26, 101651.34, 0.19,-0.54, 9.67, 20893
25.26, 101651.34, 0.17,-0.56, 9.69, 20898
25.26, 101651.34, 0.23,-0.59, 9.66, 20903
25.26, 101651.34, 0.21,-0.52, 9.66, 20908
25.26, 101651.34, 0.19,-0.56, 9.67, 20913
25.26, 101651.34, 0.13,-0.50, 9.66, 20918
25.26, 101654.25, 0.15,-0.48, 9.64, 20923
25.26, 101654.25, 0.21,-0.57, 9.67, 20928
25.26, 101654.25, 0.21,-0.57, 9.60, 20933
25.26, 101654.25, 0.21,-0.61, 9.46, 20938
25.26, 101654.25, 0.33,-0.52, 9.52, 20943
25.26, 101654.25, 0.27,-0.54, 9.52, 20948
25.26, 101654.25, 0.17,-0.54, 9.54, 20953
25.26, 101652.98, 0.23,-0.54, 9.75, 20958
25.26, 101652.98, 0.25,-0.54, 9.66, 20963
25.26, 101652.98, 0.17,-0.57, 9.67, 20968
25.26, 101652.98, 0.31,-0.52, 9.67, 20973
25.26, 101652.98, 0.36,-0.67, 9.69, 20978
25.26, 101652.98, 0.25,-0.59, 9.79, 20983
25.26, 101652.98, 0.25,-0.56, 9.77, 20988
25.26, 101653.42, 0.21,-0.57, 9.71, 20993
25.26, 101653.42, 0.21,-0.56, 9.66, 20998
25.26, 101653.42, 0.27,-0.50, 9.60, 21003
25.26, 101653.42, 0.17,-0.61, 9.69, 21008
25.26, 101653.42, 0.23,-0.56, 9.75, 21013
25.26, 101653.42, 0.25,-0.61, 9.69, 21018
25.26, 101653.42, 0.29,-0.57, 9.64, 21023
25.26, 101652.77, 0.29,-0.56, 9.58, 21030
25.26, 101652.77, 0.17,-0.54, 9.50, 21035
25.26, 101652.77, 0.21,-0.54, 9.66, 21040
25.26, 101652.77, 0.23,-0.67, 9.90, 21045
25.26, 101652.77, 0.25,-0.61, 9.45, 21050
25.26, 101652.77, 0.25,-0.59, 9.62, 21055
25.26, 101652.77, 0.25,-0.61, 9.69, 21060
25.26, 101653.81, 0.21,-0.52, 9.69, 21065
25.26, 101653.81, 0.13,-0.54, 9.69, 21070
25.26, 101653.81, 0.17,-0.54, 9.79, 21075
25.26, 101653.81, 0.13,-0.54, 9.83, 21080
25.26, 101653.97, 0.33,-0.48, 9.64, 21156
25.26, 101653.97, 0.33,-0.44, 9.67, 21161
25.26, 101653.97, 0.33,-0.54, 9.64, 21166
25.26, 101654.73, 0.29,-0.56, 9.67, 21171
25.26, 101654.73, 0.25,-0.54, 9.69, 21176
25.26, 101654.73, 0.25,-0.52, 9.71, 21181
25.26, 101654.73, 0.31,-0.52, 9.60, 21186
25.26, 101654.73, 0.31,-0.46, 9.58, 21191
25.26, 101654.73, 0.27,-0.50, 9.48, 21196
25.26, 101654.73, 0.27,-0.52, 9.60, 21201
25.26, 101651.67, 0.21,-0.52, 9.64, 21206
25.26, 101651.67, 0.19,-0.59, 9.79, 21211
25.26, 101651.67, 0.19,-0.57, 9.56, 21216
25.26, 101651.67, 0.19,-0.59, 9.67, 21221
25.26, 101651.67, 0.17,-0.54, 9.75, 21226
25.26, 101651.67, 0.15,-0.44, 9.66, 21231
25.26, 101651.67, 0.19,-0.50, 9.62, 21236
25.26, 101654.31, 0.19,-0.57, 9.58, 21241
25.26, 101654.31, 0.19,-0.59, 9.69, 21246
25.26, 101654.31, 0.21,-0.56, 9.60, 21251
25.26, 101654.31, 0.17,-0.50, 9.60, 21256
25.26, 101654.31, 0.23,-0.52, 9.62, 21261
25.26, 101654.31, 0.25,-0.52, 9.64, 21266
25.26, 101654.31, 0.25,-0.50, 9.67, 21271
25.26, 101651.34, 0.25,-0.48, 9.67, 21276
25.26, 101651.34, 0.31,-0.52, 9.69, 21281
25.26, 101651.34, 0.29,-0.56, 9.62, 21286
25.26, 101651.34, 0.25,-0.57, 9.62, 21291
25.26, 101651.34, 0.19,-0.56, 9.66, 21296
25.26, 101651.34, 0.21,-0.52, 9.64, 21301
25.26, 101651.34, 0.25,-0.61, 9.73, 21306
25.26, 101650.69, 0.27,-0.46, 9.66, 21311
25.26, 101650.69, 0.29,-0.56, 9.56, 21316
25.26, 101650.69, 0.27,-0.54, 9.62, 21321
25.26, 101650.69, 0.27,-0.46, 9.56, 21326
25.26, 101650.69, 0.15,-0.52, 9.62, 21331
25.26, 101650.69, 0.13,-0.52, 9.66, 21336
25.26, 101650.69, 0.23,-0.54, 9.69, 21341
25.26, 101652.50, 0.21,-0.57, 9.66, 21346
25.26, 101653.42, 0.21,-0.61, 9.69, 21351
25.26, 101653.42, 0.23,-0.54, 9.66, 21356
25.26, 101653.42, 0.29,-0.57, 9.64, 21361
25.26, 101653.42, 0.25,-0.56, 9.62, 21366
25.26, 101653.42, 0.19,-0.59, 9.62, 21371
25.26, 101653.42, 0.21,-0.54, 9.62, 21376
25.26, 101653.42, 0.17,-0.50, 9.62, 21381
25.26, 101651.27, 0.27,-0.56, 9.58, 21386
25.26, 101651.27, 0.29,-0.54, 9.62, 21391
25.26, 101651.27, 0.25,-0.57, 9.60, 21396
25.26, 101651.27, 0.23,-0.57, 9.64, 21401
25.26, 101651.27, 0.19,-0.57, 9.60, 21406
25.26, 101651.27, 0.25,-0.52, 9.73, 21411
25.26, 101651.27, 0.21,-0.50, 9.69, 21416
25.26, 101652.98, 0.23,-0.50, 9.87, 21421
25.26, 101652.98, 0.25,-0.54, 9.77, 21426
25.26, 101652.98, 0.25,-0.63, 9.71, 21431
25.26, 101652.98, 0.21,-0.54, 9.54, 21436
25.26, 101652.98, 0.29,-0.57, 9.54, 21441
25.26, 101652.98, 0.29,-0.54, 9.56, 21446
25.26, 101652.98, 0.38,-0.54, 9.64, 21451
25.26, 101649.78, 0.27,-0.56, 9.64, 21456
25.26, 101649.78, 0.27,-0.61, 9.60, 21461
25.26, 101649.78, 0.25,-0.50, 9.66, 21466
25.26, 101649.78, 0.27,-0.50, 9.58, 21471
25.26, 101649.78, 0.19,-0.54, 9.56, 21476
25.26, 101649.78, 0.21,-0.56, 9.56, 21481
25.26, 101649.78, 0.21,-0.54, 9.64, 21486
25.26, 101650.61, 0.21,-0.56, 9.66, 21491
25.26, 101650.61, 0.25,-0.50, 9.73, 21496
25.26, 101650.61, 0.17,-0.52, 9.71, 21501
25.26, 101650.61, 0.21,-0.52, 9.71, 21506
25.26, 101650.61, 0.25,-0.52, 9.71, 21511
25.26, 101650.61, 0.33,-0.54, 9.64, 21516
25.26, 101650.61, 0.29,-0.57, 9.67, 21521
25.26, 101651.33, 0.25,-0.56, 9.73, 21526
25.26, 101651.33, 0.23,-0.54, 9.60, 21531
25.26, 101651.33, 0.17,-0.59, 9.50, 21536
25.26, 101651.33, 0.13,-0.59, 9.62, 21541
25.26, 101651.33, 0.17,-0.56, 9.54, 21546
25.26, 101651.33, 0.21,-0.54, 9.62, 21551
25.26, 101651.33, 0.19,-0.50, 9.71, 21556
25.26, 101651.67, 0.25,-0.54, 9.66, 21561
25.26, 101651.67, 0.31,-0.44, 9.60, 21566
25.26, 101651.67, 0.29,-0.56, 9.62, 21571
25.26, 101651.67, 0.31,-0.52, 9.67, 21576
25.26, 101651.67, 0.21,-0.52, 9.66, 21581
25.26, 101651.67, 0.27,-0.52, 9.66, 21586
25.26, 101651.67, 0.15,-0.52, 9.62, 21591
25.26, 101652.32, 0.15,-0.54, 9.62, 21596
25.26, 101652.32, 0.27,-0.57, 9.67, 21605
25.26, 101652.32, 0.17,-0.54, 9.67, 21610
25.26, 101652.32, 0.15,-0.56, 9.46, 21615
25.26, 101652.32, 0.19,-0.56, 9.71, 21620
25.26, 101652.32, 0.19,-0.56, 9.67, 21625
25.26, 101652.32, 0.19,-0.61, 9.66, 21630
25.26, 101653.20, 0.17,-0.59, 9.58, 21635
25.26, 101653.20, 0.17,-0.54, 9.52, 21640
25.26, 101653.20, 0.21,-0.50, 9.66, 21645
25.26, 101653.20, 0.21,-0.52, 9.66, 21650
25.26, 101653.20, 0.23,-0.59, 9.67, 21655
25.26, 101653.20, 0.21,-0.48, 9.71, 21660
25.26, 101653.20, 0.19,-0.56, 9.66, 21665
25.26, 101652.48, 0.21,-0.50, 9.62, 21670
25.26, 101652.48, 0.27,-0.56, 9.58, 21675
25.26, 101652.48, 0.23,-0.56, 9.64, 21680
25.26, 101652.48, 0.25,-0.56, 9.62, 21685
25.26, 101652.48, 0.19,-0.56, 9.67, 21690
25.26, 101652.48, 0.19,-0.57, 9.69, 21695
25.26, 101652.48, 0.25,-0.46, 9.75, 21700
25.26, 101651.94, 0.21,-0.48, 9.69, 21705
25.26, 101651.94, 0.23,-0.54, 9.60, 21710
25.26, 101651.94, 0.21,-0.52, 9.50, 21715
25.26, 101651.94, 0.27,-0.48, 9.56, 21720
25.26, 101651.94, 0.29,-0.56, 9.48, 21725
25.26, 101651.94, 0.25,-0.63, 9.54, 21730
25.26, 101651.94, 0.29,-0.50, 9.64, 21735
25.26, 101655.12, 0.25,-0.56, 9.64, 21740
25.26, 101655.12, 0.29,-0.44, 9.66, 21745
25.26, 101655.12, 0.29,-0.52, 9.69, 21750
25.26, 101655.12, 0.23,-0.52, 9.67, 21755
25.26, 101655.12, 0.25,-0.50, 9.64, 21760
25.26, 101655.12, 0.21,-0.56, 9.66, 21765
25.26, 101655.12, 0.27,-0.59, 9.64, 21770
25.26, 101651.02, 0.23,-0.59, 9.69, 21775
25.26, 101651.02, 0.19,-0.52, 9.62, 21780
25.26, 101651.02, 0.21,-0.52, 9.62, 21785
25.26, 101651.02, 0.19,-0.54, 9.67, 21790
25.26, 101651.02, 0.27,-0.48, 9.64, 21795
25.26, 101651.02, 0.29,-0.57, 9.69, 21800
25.26, 101651.02, 0.17,-0.56, 9.66, 21805
25.26, 101653.31, 0.19,-0.56, 9.50, 21810
25.26, 101653.31, 0.23,-0.46, 9.69, 21815
25.26, 101653.31, 0.23,-0.56, 9.66, 21820
25.26, 101653.31, 0.29,-0.59, 9.66, 21825
25.26, 101653.31, 0.10,-0.57, 9.58, 21830
25.26, 101653.31, 0.15,-0.56, 9.75, 21835
25.26, 101653.31, 0.19,-0.61, 9.64, 21840
25.26, 101651.34, 0.13,-0.59, 9.67, 21845
25.26, 101651.34, 0.21,-0.52, 9.56, 21850
25.26, 101651.34, 0.15,-0.59, 9.62, 21855
25.26, 101651.34, 0.23,-0.56, 9.69, 21860
25.26, 101651.34, 0.25,-0.57, 9.67, 21865
25.26, 101651.34, 0.27,-0.61, 9.64, 21870
25.26, 101651.34, 0.21,-0.57, 9.71, 21875
25.26, 101652.27, 0.19,-0.57, 9.67, 21880
25.26, 101652.27, 0.21,-0.57, 9.66, 21885
25.26, 101652.27, 0.19,-0.56, 9.66, 21890
25.26, 101652.27, 0.25,-0.52, 9.66, 21895
25.26, 101652.27, 0.27,-0.52, 9.67, 21900
25.26, 101652.27, 0.27,-0.52, 9.66, 21905
25.26, 101652.27, 0.25,-0.50, 9.60, 21910
25.26, 101654.12, 0.34,-0.56, 9.69, 21915
25.26, 101654.12, 0.17,-0.54, 9.69, 21920
25.26, 101654.12, 0.29,-0.54, 9.60, 21925
25.26, 101654.12, 0.21,-0.59, 9.66, 21930
25.26, 101654.12, 0.19,-0.59, 9.66, 21935
25.26, 101654.12, 0.23,-0.61, 9.73, 21940
25.26, 101654.12, 0.19,-0.54, 9.60, 21945
25.26, 101652.21, 0.25,-0.59, 9.66, 21950
25.26, 101652.21, 0.17,-0.50, 9.56, 21955
25.26, 101652.21, 0.23,-0.56, 9.64, 21960
25.26, 101652.21, 0.23,-0.52, 9.64, 21965
25.26, 101652.21, 0.27,-0.57, 9.60, 21970
25.26, 101652.21, 0.25,-0.54, 9.66, 21975
25.26, 101652.21, 0.17,-0.59, 9.67, 21980
25.26, 101652.21, 0.25,-0.59, 9.66, 21985
25.26, 101654.29, 0.29,-0.56, 9.64, 21990
25.26, 101654.29, 0.25,-0.59, 9.64, 21995
25.26, 101654.29, 0.19,-0.57, 9.66, 22000
25.26, 101654.29, 0.15,-0.56, 9.67, 22005
25.26, 101654.29, 0.23,-0.54, 9.64, 22010
25.26, 101654.29, 0.21,-0.56, 9.48, 22015
25.26, 101654.29, 0.21,-0.54, 9.56, 22020
25.26, 101653.31, 0.17,-0.56, 9.60, 22025
25.26, 101653.31, 0.25,-0.52, 9.62, 22030
25.26, 101653.31, 0.27,-0.52, 9.79, 22035
25.26, 101653.31, 0.21,-0.54, 9.67, 22040
25.26, 101653.31, 0.25,-0.57, 9.73, 22045
25.26, 101653.31, 0.23,-0.54, 9.75, 22050
25.26, 101653.31, 0.19,-0.59, 9.69, 22055
25.26, 101651.55, 0.21,-0.59, 9.64, 22060
25.26, 101651.55, 0.27,-0.57, 9.67, 22065
25.26, 101651.55, 0.33,-0.63, 9.64, 22070
25.26, 101651.55, 0.34,-0.54, 9.69, 22075
25.26, 101651.55, 0.25,-0.57, 9.64, 22080
25.26, 101651.55, 0.23,-0.57, 9.67, 22085
25.26, 101651.55, 0.34,-0.56, 9.66, 22090
25.26, 101651.55, 0.33,-0.56, 9.67, 22095
25.26, 101651.55, 0.29,-0.57, 9.71, 22100
25.26, 101651.55, 0.21,-0.59, 9.60, 22112
25.26, 101651.55, 0.27,-0.50, 9.62, 22116
25.26, 101651.55, 0.19,-0.52, 9.56, 22121
25.26, 101651.55, 0.23,-0.52, 9.64, 22126
25.26, 101652.32, 0.21,-0.54, 9.56, 22131
25.26, 101652.32, 0.19,-0.54, 9.64, 22136
25.26, 101652.32, 0.17,-0.57, 9.64, 22141
25.26, 101652.32, 0.17,-0.56, 9.71, 22146
25.26, 101652.32, 0.17,-0.52, 9.60, 22151
25.26, 101652.32, 0.17,-0.52, 9.60, 22156
25.26, 101652.32, 0.13,-0.48, 9.66, 22161
25.26, 101654.29, 0.21,-0.54, 9.64, 22166
25.26, 101654.29, 0.21,-0.59, 9.60, 22171
25.26, 101654.29, 0.21,-0.57, 9.62, 22176
25.26, 101654.29, 0.27,-0.56, 9.60, 22181
25.26, 101654.29, 0.25,-0.57, 9.58, 22186
25.26, 101654.29, 0.25,-0.52, 9.73, 22191
25.26, 101654.29, 0.15,-0.57, 9.54, 22196
25.26, 101652.66, 0.21,-0.57, 9.69, 22201
25.26, 101652.66, 0.25,-0.59, 9.75, 22206
25.26, 101652.66, 0.15,-0.56, 9.73, 22211
25.26, 101652.66, 0.33,-0.56, 9.69, 22216
25.26, 101652.66, 0.25,-0.56, 9.64, 22221
25.26, 101652.66, 0.29,-0.59, 9.64, 22226
25.26, 101652.66, 0.19,-0.56, 9.73, 22231
25.26, 101651.33, 0.21,-0.56, 9.73, 22236
25.26, 101651.33, 0.21,-0.52, 9.69, 22241
25.26, 101651.33, 0.17,-0.54, 9.67, 22246
25.26, 101651.33, 0.23,-0.57, 9.60, 22251
25.26, 101651.33, 0.17,-0.57, 9.62, 22256
25.26, 101651.33, 0.23,-0.54, 9.66, 22261
25.26, 101651.33, 0.25,-0.57, 9.62, 22266
25.26, 101653.86, 0.29,-0.52, 9.62, 22271
25.26, 101653.86, 0.21,-0.52, 9.64, 22276
25.26, 101653.86, 0.19,-0.52, 9.66, 22281
25.26, 101653.86, 0.27,-0.54, 9.66, 22286
25.26, 101653.86, 0.23,-0.59, 9.58, 22291
25.26, 101653.86, 0.23,-0.59, 9.71, 22296
25.26, 101653.86, 0.23,-0.59, 9.69, 22301
25.26, 101653.64, 0.25,-0.59, 9.90, 22306
25.26, 101653.64, 0.25,-0.63, 9.60, 22311
25.26, 101653.64, 0.23,-0.54, 9.73, 22316
25.26, 101653.64, 0.21,-0.44, 9.71, 22321
25.26, 101653.64, 0.29,-0.50, 9.56, 22326
25.26, 101653.64, 0.27,-0.54, 9.54, 22331
25.26, 101653.64, 0.23,-0.52, 9.64, 22336
25.26, 101655.79, 0.25,-0.54, 9.69, 22341
25.26, 101655.79, 0.29,-0.54, 9.66, 22346
25.26, 101655.79, 0.19,-0.52, 9.58, 22351
25.26, 101655.79, 0.23,-0.54, 9.60, 22356
25.26, 101655.79, 0.25,-0.54, 9.66, 22361
25.26, 101655.79, 0.23,-0.54, 9.66, 22366
25.26, 101655.79, 0.23,-0.59, 9.60, 22371
25.26, 101653.48, 0.21,-0.57, 9.60, 22376
25.26, 101655.28, 0.23,-0.63, 9.62, 22381
25.26, 101655.28, 0.25,-0.61, 9.66, 22386
25.26, 101655.28, 0.15,-0.57, 9.67, 22391
25.26, 101655.28, 0.25,-0.46, 9.60, 22396
25.26, 101655.28, 0.17,-0.57, 9.60, 22401
25.26, 101655.28, 0.15,-0.44, 9.50, 22406
25.26, 101655.28, 0.23,-0.48, 9.62, 22411
25.26, 101654.36, 0.25,-0.50, 9.52, 22416
25.26, 101654.36, 0.21,-0.52, 9.56, 22421
25.26, 101654.36, 0.31,-0.56, 9.60, 22426
25.26, 101654.36, 0.25,-0.52, 9.67, 22431
25.26, 101654.36, 0.25,-0.54, 9.66, 22436
25.26, 101654.36, 0.27,-0.54, 9.60, 22441
25.26, 101654.36, 0.21,-0.56, 9.50, 22446
25.26, 101654.29, 0.25,-0.54, 9.67, 22451
25.26, 101654.29, 0.23,-0.54, 9.64, 22456
25.26, 101654.29, 0.25,-0.59, 9.66, 22461
25.26, 101654.29, 0.21,-0.54, 9.62, 22466
25.26, 101654.29, 0.21,-0.52, 9.60, 22471
25.26, 101654.29, 0.19,-0.50, 9.62, 22476
25.26, 101654.29, 0.23,-0.52, 9.60, 22481
25.26, 101653.15, 0.29,-0.56, 9.67, 22486
25.26, 101653.15, 0.27,-0.56, 9.67, 22491
25.26, 101653.15, 0.23,-0.57, 9.77, 22496
25.26, 101653.15, 0.17,-0.52, 9.62, 22501
25.26, 101653.15, 0.19,-0.59, 9.62, 22506
25.26, 101653.15, 0.27,-0.56, 9.67, 22511
25.26, 101653.15, 0.25,-0.56, 9.77, 22516
25.26, 101654.30, 0.21,-0.57, 9.37, 22521
25.26, 101654.30, 0.23,-0.52, 9.46, 22526
25.26, 101654.30, 0.27,-0.56, 9.54, 22531
25.26, 101654.30, 0.31,-0.52, 9.60, 22536
25.26, 101654.30, 0.21,-0.59, 9.54, 22541
25.26, 101654.30, 0.19,-0.50, 9.58, 22546
25.26, 101654.30, 0.19,-0.46, 9.60, 22551
25.26, 101654.25, 0.25,-0.50, 9.75, 22556
25.26, 101654.25, 0.17,-0.54, 9.69, 22561
25.26, 101654.25, 0.29,-0.52, 9.62, 22566
25.26, 101654.25, 0.27,-0.56, 9.62, 22571
25.26, 101654.25, 0.31,-0.54, 9.66, 22576
25.26, 101654.25, 0.23,-0.61, 9.69, 22581
25.26, 101654.25, 0.25,-0.57, 9.67, 22586
25.26, 101653.70, 0.25,-0.56, 9.66, 22591
25.26, 101653.70, 0.19,-0.59, 9.64, 22596
25.26, 101653.70, 0.21,-0.52, 9.62, 22601
25.26, 101653.70, 0.27,-0.48, 9.62, 22606
25.26, 101653.70, 0.27,-0.50, 9.56, 22614
25.26, 101653.70, 0.29,-0.50, 9.73, 22618
25.26, 101653.70, 0.29,-0.54, 9.66, 22623
25.26, 101653.81, 0.25,-0.50, 9.60, 22628
25.26, 101653.81, 0.23,-0.50, 9.56, 22633
25.26, 101653.81, 0.23,-0.59, 9.66, 22638
25.26, 101653.81, 0.23,-0.59, 9.64, 22643
25.26, 101653.81, 0.21,-0.56, 9.67, 22648
25.26, 101653.81, 0.15,-0.54, 9.66, 22653
25.26, 101653.81, 0.19,-0.57, 9.66, 22658
25.26, 101654.36, 0.15,-0.50, 9.64, 22663
25.26, 101654.36, 0.19,-0.52, 9.66, 22668
25.26, 101654.36, 0.19,-0.52, 9.67, 22673
25.26, 101654.36, 0.21,-0.52, 9.71, 22678
25.26, 101654.36, 0.25,-0.52, 9.67, 22683
25.26, 101654.36, 0.19,-0.52, 9.71, 22688
25.26, 101654.36, 0.13,-0.46, 9.73, 22693
25.26, 101652.66, 0.11,-0.54, 9.69, 22698
25.26, 101652.66, 0.11,-0.56, 9.69, 22703
25.26, 101652.66, 0.15,-0.54, 9.60, 22708
25.26, 101652.66, 0.13,-0.54, 9.77, 22713
25.26, 101652.66, 0.19,-0.57, 9.77, 22718
25.26, 101652.66, 0.13,-0.59, 9.62, 22723
25.26, 101652.66, 0.17,-0.57, 9.69, 22728
25.26, 101654.20, 0.23,-0.54, 9.71, 22733
25.26, 101654.20, 0.27,-0.50, 9.67, 22738
25.26, 101654.20, 0.29,-0.57, 9.67, 22743
25.26, 101654.20, 0.25,-0.54, 9.62, 22748
25.26, 101654.20, 0.23,-0.59, 9.62, 22753
25.26, 101654.20, 0.17,-0.54, 9.64, 22758
25.26, 101654.20, 0.25,-0.57, 9.64, 22763
25.26, 101654.20, 0.25,-0.52, 9.62, 22768
25.26, 101654.20, 0.21,-0.57, 9.64, 22773
25.26, 101654.20, 0.23,-0.56, 9.67, 22778
25.26, 101654.20, 0.19,-0.56, 9.64, 22783
25.26, 101654.20, 0.21,-0.57, 9.64, 22788
25.26, 101654.20, 0.19,-0.59, 9.58, 22793
25.26, 101654.20, 0.19,-0.63, 9.66, 22798
25.26, 101653.95, 0.23,-0.52, 9.73, 22803
25.26, 101653.95, 0.21,-0.50, 9.58, 22808
25.26, 101653.95, 0.21,-0.57, 9.43, 22813
25.26, 101653.95, 0.23,-0.57, 9.46, 22818
25.26, 101653.95, 0.27,-0.56, 9.60, 22823
25.26, 101653.95, 0.29,-0.54, 9.67, 22828
25.26, 101653.95, 0.25,-0.61, 9.50, 22833
25.26, 101652.97, 0.23,-0.59, 9.56, 22838
25.26, 101652.97, 0.25,-0.50, 9.58, 22843
25.26, 101652.97, 0.27,-0.46, 9.48, 22848
25.26, 101652.97, 0.15,-0.52, 9.62, 22853
25.26, 101652.97, 0.19,-0.54, 9.67, 22858
25.26, 101652.97, 0.13,-0.54, 9.69, 22863
25.26, 101652.97, 0.25,-0.50, 9.62, 22868
25.26, 101652.97, 0.25,-0.54, 9.67, 22873
25.26, 101654.95, 0.21,-0.56, 9.66, 22878
25.26, 101654.95, 0.23,-0.52, 9.67, 22883
25.26, 101654.95, 0.13,-0.56, 9.66, 22888
25.26, 101654.95, 0.21,-0.57, 9.69, 22893
25.26, 101654.95, 0.15,-0.61, 9.67, 22898
25.26, 101654.95, 0.15,-0.65, 9.60, 22903
25.26, 101654.95, 0.29,-0.57, 9.62, 22908
25.26, 101653.30, 0.21,-0.54, 9.69, 22913
25.26, 101653.30, 0.25,-0.54, 9.66, 22918
25.26, 101653.30, 0.27,-0.59, 9.50, 22923
25.26, 101653.30, 0.13,-0.57, 9.37, 22928
25.26, 101653.30, 0.19,-0.54, 9.69, 22933
25.26, 101653.30, 0.27,-0.61, 9.79, 22938
25.26, 101653.30, 0.21,-0.61, 9.73, 22943
25.26, 101653.30, 0.21,-0.52, 9.67, 22948
25.26, 101653.30, 0.25,-0.54, 9.54, 22953
25.26, 101653.30, 0.21,-0.48, 9.60, 22958
25.26, 101653.30, 0.23,-0.52, 9.64, 22963
25.26, 101653.30, 0.25,-0.56, 9.73, 22968
25.26, 101653.30, 0.19,-0.56, 9.67, 22973
25.26, 101653.30, 0.21,-0.57, 9.64, 22978
25.26, 101653.39, 0.27,-0.57, 9.67, 22983
25.26, 101653.39, 0.23,-0.54, 9.58, 22988
25.26, 101653.39, 0.25,-0.54, 9.66, 22993
25.26, 101653.39, 0.27,-0.59, 9.67, 22998
25.26, 101653.39, 0.21,-0.57, 9.62, 23003
25.26, 101653.39, 0.21,-0.52, 9.66, 23008
25.26, 101653.39, 0.25,-0.56, 9.69, 23013
25.26, 101654.22, 0.19,-0.65, 9.48, 23018
25.26, 101654.22, 0.17,-0.59, 9.56, 23023
25.26, 101654.22, 0.19,-0.54, 9.60, 23028
25.26, 101654.22, 0.25,-0.57, 9.66, 23033
25.26, 101654.22, 0.19,-0.56, 9.50, 23038
25.26, 101654.22, 0.21,-0.56, 9.71, 23043
25.26, 101654.22, 0.13,-0.54, 9.69, 23048
25.26, 101653.46, 0.29,-0.50, 9.69, 23053
25.26, 101653.46, 0.23,-0.63, 9.66, 23058
25.26, 101653.46, 0.23,-0.52, 9.67, 23063
25.26, 101653.46, 0.23,-0.59, 9.67, 23068
25.26, 101653.46, 0.23,-0.61, 9.60, 23073
25.26, 101653.46, 0.23,-0.59, 9.56, 23078
25.26, 101653.46, 0.23,-0.50, 9.62, 23083
25.26, 101652.21, 0.25,-0.56, 9.56, 23088
25.26, 101652.21, 0.27,-0.56, 9.66, 23093
25.26, 101652.21, 0.25,-0.50, 9.66, 23098
25.26, 101652.21, 0.25,-0.52, 9.66, 23103
25.26, 101652.21, 0.21,-0.56, 9.64, 23108
25.26, 101652.21, 0.19,-0.52, 9.62, 23116
25.26, 101652.21, 0.27,-0.54, 9.73, 23120
25.26, 101653.30, 0.31,-0.54, 9.71, 23125
25.26, 101653.30, 0.17,-0.57, 9.69, 23130
25.26, 101653.30, 0.23,-0.57, 9.67, 23135
25.26, 101653.30, 0.25,-0.57, 9.58, 23140
25.26, 101653.30, 0.23,-0.52, 9.69, 23145
25.26, 101653.30, 0.23,-0.54, 9.58, 23150
25.26, 101653.30, 0.19,-0.59, 9.66, 23155
25.26, 101655.43, 0.17,-0.61, 9.62, 23160
25.26, 101655.43, 0.17,-0.56, 9.62, 23165
25.26, 101655.43, 0.17,-0.59, 9.67, 23170
25.26, 101655.43, 0.19,-0.56, 9.67, 23175
25.26, 101655.43, 0.17,-0.56, 9.64, 23180
25.26, 101655.43, 0.21,-0.57, 9.67, 23185
25.26, 101655.43, 0.27,-0.57, 9.62, 23190
25.26, 101652.98, 0.25,-0.57, 9.69, 23195
25.26, 101652.98, 0.21,-0.56, 9.71, 23200
25.26, 101652.98, 0.15,-0.52, 9.60, 23205
25.26, 101652.98, 0.23,-0.61, 9.62, 23210
25.26, 101652.98, 0.15,-0.52, 9.52, 23215
25.26, 101652.98, 0.19,-0.54, 9.37, 23220
25.26, 101652.98, 0.25,-0.67, 9.50, 23225
25.26, 101656.75, 0.25,-0.65, 9.67, 23230
25.26, 101656.75, 0.19,-0.56, 9.60, 23235
25.26, 101656.75, 0.27,-0.50, 9.62, 23240
25.26, 101656.75, 0.31,-0.54, 9.64, 23245
25.26, 101656.75, 0.23,-0.50, 9.71, 23250
25.26, 101656.75, 0.21,-0.52, 9.66, 23255
25.26, 101656.75, 0.21,-0.54, 9.69, 23260
25.26, 101654.12, 0.17,-0.59, 9.71, 23265
25.26, 101654.12, 0.19,-0.54, 9.56, 23270
25.26, 101654.12, 0.17,-0.46, 9.60, 23275
25.26, 101654.12, 0.27,-0.50, 9.58, 23280
25.26, 101654.12, 0.23,-0.57, 9.62, 23285
25.26, 101654.12, 0.27,-0.56, 9.62, 23290
25.26, 101654.12, 0.23,-0.57, 9.62, 23295
25.26, 101652.64, 0.21,-0.59, 9.64, 23300
25.26, 101652.64, 0.21,-0.61, 9.67, 23305
25.26, 101652.64, 0.23,-0.59, 9.67, 23310
25.26, 101652.64, 0.23,-0.54, 9.64, 23315
25.26, 101652.64, 0.33,-0.54, 9.75, 23320
25.26, 101652.64, 0.19,-0.50, 9.62, 23325
25.26, 101652.64, 0.23,-0.46, 9.52, 23330
25.26, 101654.03, 0.29,-0.52, 9.60, 23335
25.26, 101654.03, 0.25,-0.52, 9.62, 23340
25.26, 101654.03, 0.25,-0.52, 9.66, 23345
25.26, 101654.03, 0.29,-0.50, 9.64, 23350
25.26, 101654.03, 0.21,-0.50, 9.71, 23355
25.26, 101654.03, 0.19,-0.52, 9.67, 23360
25.26, 101654.03, 0.25,-0.50, 9.62, 23365
25.26, 101654.03, 0.27,-0.54, 9.67, 23370
25.26, 101654.78, 0.25,-0.59, 9.62, 23375
25.26, 101654.78, 0.27,-0.57, 9.56, 23380
25.26, 101654.78, 0.19,-0.56, 9.62, 23385
25.26, 101654.78, 0.23,-0.54, 9.64, 23390
25.26, 101654.78, 0.27,-0.54, 9.60, 23395
25.26, 101654.78, 0.25,-0.56, 9.67, 23400
25.26, 101654.78, 0.17,-0.54, 9.66, 23405
25.26, 101653.20, 0.21,-0.57, 9.60, 23410
25.26, 101653.20, 0.17,-0.59, 9.66, 23415
25.26, 101653.20, 0.13,-0.54, 9.66, 23420
25.26, 101653.20, 0.17,-0.56, 9.58, 23425
25.26, 101653.20, 0.21,-0.54, 9.69, 23430
25.26, 101653.20, 0.23,-0.52, 9.66, 23435
25.26, 101653.20, 0.19,-0.52, 9.73, 23440
25.26, 101651.55, 0.21,-0.56, 9.62, 23445
25.26, 101651.55, 0.29,-0.59, 9.67, 23450
25.26, 101651.55, 0.25,-0.54, 9.66, 23455
25.26, 101651.55, 0.21,-0.50, 9.64, 23460
25.26, 101651.55, 0.21,-0.63, 9.66, 23465
25.26, 101651.55, 0.23,-0.59, 9.64, 23470
25.26, 101651.55, 0.25,-0.56, 9.66, 23475
25.26, 101652.97, 0.34,-0.52, 9.60, 23480
25.26, 101652.97, 0.25,-0.59, 9.56, 23485
25.26, 101652.97, 0.21,-0.50, 9.62, 23490
25.26, 101652.97, 0.21,-0.46, 9.62, 23495
25.26, 101652.97, 0.27,-0.50, 9.67, 23500
25.26, 101652.97, 0.25,-0.59, 9.66, 23505
25.26, 101652.97, 0.27,-0.59, 9.67, 23510
25.26, 101651.06, 0.25,-0.56, 9.64, 23515
25.26, 101651.06, 0.25,-0.54, 9.66, 23520
25.26, 101651.06, 0.25,-0.57, 9.58, 23525
25.26, 101651.06, 0.29,-0.63, 9.52, 23530
25.26, 101651.06, 0.27,-0.57, 9.67, 23535
25.26, 101651.06, 0.17,-0.61, 9.50, 23540
25.26, 101651.06, 0.21,-0.59, 9.60, 23545
25.26, 101651.64, 0.21,-0.54, 9.56, 23550
25.26, 101651.64, 0.23,-0.56, 9.64, 23555
25.26, 101651.64, 0.25,-0.56, 9.77, 23560
25.26, 101651.64, 0.27,-0.56, 9.73, 23565
25.26, 101651.64, 0.27,-0.57, 9.66, 23570
25.26, 101651.64, 0.27,-0.56, 9.62, 23575
25.26, 101651.64, 0.34,-0.61, 9.66, 23580
25.26, 101651.66, 0.36,-0.56, 9.62, 23585
25.26, 101651.66, 0.25,-0.52, 9.67, 23590
25.26, 101651.66, 0.17,-0.57, 9.60, 23595
25.26, 101651.66, 0.27,-0.54, 9.64, 23600
25.26, 101651.66, 0.21,-0.52, 9.67, 23605
25.26, 101651.66, 0.19,-0.56, 9.64, 23610
25.26, 101651.66, 0.27,-0.54, 9.62, 23618
25.26, 101655.44, 0.31,-0.50, 9.75, 23622
25.26, 101655.44, 0.27,-0.54, 9.64, 23627
25.26, 101655.44, 0.29,-0.57, 9.64, 23632
25.26, 101655.44, 0.27,-0.56, 9.77, 23637
25.26, 101655.44, 0.23,-0.50, 9.79, 23642
25.26, 101655.44, 0.19,-0.54, 9.75, 23647
25.26, 101655.44, 0.23,-0.54, 9.69, 23652
25.26, 101653.86, 0.23,-0.59, 9.60, 23657
25.26, 101653.86, 0.19,-0.61, 9.60, 23662
25.26, 101653.86, 0.19,-0.56, 9.64, 23667
25.26, 101653.86, 0.23,-0.57, 9.62, 23672
25.26, 101653.86, 0.27,-0.54, 9.67, 23677
25.26, 101653.86, 0.21,-0.52, 9.60, 23682
25.26, 101653.86, 0.17,-0.59, 9.62, 23687
25.26, 101652.97, 0.17,-0.52, 9.66, 23692
25.26, 101652.97, 0.23,-0.56, 9.62, 23697
25.26, 101652.97, 0.29,-0.52, 9.60, 23702
25.26, 101652.97, 0.23,-0.52, 9.62, 23707
25.26, 101652.97, 0.19,-0.52, 9.62, 23712
25.26, 101652.97, 0.23,-0.52, 9.66, 23717
25.26, 101652.97, 0.13,-0.57, 9.62, 23722
25.26, 101652.38, 0.17,-0.52, 9.66, 23727
25.26, 101652.38, 0.21,-0.54, 9.62, 23732
25.26, 101652.38, 0.15,-0.50, 9.64, 23737
25.26, 101652.38, 0.21,-0.56, 9.67, 23742
25.26, 101652.38, 0.29,-0.67, 9.77, 23747
25.26, 101652.38, 0.23,-0.56, 9.79, 23752
25.26, 101652.38, 0.15,-0.50, 9.64, 23757
25.26, 101653.80, 0.19,-0.56, 9.64, 23762
25.26, 101653.80, 0.23,-0.52, 9.64, 23767
25.26, 101653.80, 0.33,-0.56, 9.60, 23772
25.26, 101653.80, 0.23,-0.54, 9.60, 23777
25.26, 101653.80, 0.21,-0.52, 9.67, 23782
25.26, 101653.80, 0.21,-0.48, 9.71, 23787
25.26, 101653.80, 0.27,-0.59, 9.62, 23792
25.26, 101652.47, 0.25,-0.44, 9.67, 23797
25.26, 101652.47, 0.21,-0.48, 9.64, 23802
25.26, 101652.47, 0.17,-0.50, 9.67, 23807
25.26, 101652.47, 0.23,-0.56, 9.67, 23812
25.26, 101652.47, 0.21,-0.61, 9.62, 23817
25.26, 101652.47, 0.17,-0.59, 9.66, 23822
25.26, 101652.47, 0.19,-0.48, 9.66, 23827
25.26, 101652.80, 0.19,-0.54, 9.71, 23832
25.26, 101652.80, 0.25,-0.59, 9.64, 23837
25.26, 101652.80, 0.25,-0.54, 9.60, 23842
25.26, 101652.80, 0.29,-0.56, 9.33, 23847
25.26, 101652.80, 0.25,-0.59, 9.45, 23852
25.26, 101652.80, 0.27,-0.54, 9.56, 23857
25.26, 101652.80, 0.25,-0.59, 9.58, 23862
25.26, 101652.80, 0.27,-0.52, 9.62, 23867
25.26, 101652.73, 0.27,-0.63, 9.52, 23872
25.26, 101652.73, 0.27,-0.56, 9.52, 23877
25.26, 101652.73, 0.33,-0.59, 9.58, 23882
25.26, 101652.73, 0.27,-0.56, 9.60, 23887
25.26, 101652.73, 0.23,-0.50, 9.60, 23892
25.26, 101652.73, 0.23,-0.54, 9.62, 23897
25.26, 101652.73, 0.21,-0.59, 9.69, 23902
25.26, 101656.42, 0.21,-0.54, 9.66, 23907
25.26, 101656.42, 0.25,-0.59, 9.58, 23912
25.26, 101656.42, 0.15,-0.52, 9.62, 23917
25.26, 101656.42, 0.19,-0.54, 9.66, 23922
25.26, 101656.42, 0.19,-0.61, 9.64, 23927
25.26, 101656.42, 0.19,-0.57, 9.66, 23932
25.26, 101656.42, 0.19,-0.57, 9.66, 23937
25.26, 101654.27, 0.15,-0.54, 9.56, 23942
25.26, 101654.27, 0.15,-0.57, 9.60, 23947
25.26, 101654.27, 0.25,-0.50, 9.64, 23952
25.26, 101654.27, 0.25,-0.46, 9.69, 23957
25.26, 101654.27, 0.25,-0.46, 9.69, 23962
25.26, 101654.27, 0.25,-0.56, 9.54, 23967
25.26, 101654.27, 0.19,-0.54, 9.64, 23972
25.26, 101653.22, 0.17,-0.54, 9.62, 23977
25.26, 101653.22, 0.19,-0.52, 9.67, 23982
25.26, 101653.22, 0.23,-0.50, 9.62, 23987
25.26, 101653.22, 0.13,-0.57, 9.62, 23992
25.26, 101653.22, 0.23,-0.54, 9.64, 23997
25.26, 101653.22, 0.23,-0.57, 9.64, 24002
25.26, 101653.22, 0.23,-0.59, 9.67, 24007
25.26, 101653.80, 0.21,-0.50, 9.62, 24012
25.26, 101653.80, 0.31,-0.56, 9.62, 24017
25.26, 101653.80, 0.23,-0.56, 9.58, 24022
25.26, 101653.80, 0.21,-0.56, 9.64, 24027
25.26, 101653.80, 0.23,-0.54, 9.56, 24032
25.26, 101653.80, 0.23,-0.56, 9.60, 24037
25.26, 101653.80, 0.23,-0.61, 9.64, 24042
25.26, 101654.29, 0.17,-0.52, 9.69, 24047
25.26, 101654.29, 0.25,-0.52, 9.67, 24052
25.26, 101654.29, 0.21,-0.50, 9.67, 24057
25.26, 101654.29, 0.23,-0.57, 9.58, 24062
25.26, 101654.29, 0.19,-0.56, 9.50, 24067
25.26, 101654.29, 0.21,-0.52, 9.46, 24072
25.26, 101654.29, 0.25,-0.52, 9.66, 24077
25.26, 101655.59, 0.29,-0.56, 9.58, 24082
25.26, 101655.59, 0.27,-0.54, 9.69, 24087
25.26, 101655.59, 0.19,-0.57, 9.66, 24092
25.26, 101655.59, 0.25,-0.50, 9.67, 24097
25.26, 101655.59, 0.23,-0.50, 9.62, 24102
25.26, 101655.59, 0.25,-0.48, 9.62, 24107
25.26, 101655.59, 0.27,-0.50, 9.54, 24112
25.26, 101655.20, 0.27,-0.54, 9.58, 24121
25.26, 101655.20, 0.23,-0.56, 9.66, 24126
25.26, 101655.20, 0.17,-0.61, 9.77, 24131
25.26, 101655.20, 0.19,-0.56, 9.79, 24136
25.26, 101655.20, 0.27,-0.54, 9.64, 24141
25.26, 101655.20, 0.23,-0.56, 9.50, 24146
25.26, 101655.20, 0.21,-0.57, 9.52, 24151
25.26, 101655.20, 0.19,-0.50, 9.50, 24156
25.26, 101655.20, 0.33,-0.57, 9.56, 24161
25.26, 101655.20, 0.27,-0.56, 9.67, 24166
25.26, 101655.20, 0.17,-0.46, 9.69, 24171
25.26, 101655.20, 0.27,-0.57, 9.62, 24176
25.26, 101655.20, 0.25,-0.52, 9.66, 24181
25.26, 101655.20, 0.21,-0.52, 9.62, 24186
25.26, 101652.95, 0.21,-0.52, 9.54, 24191
25.26, 101652.95, 0.21,-0.48, 9.64, 24196
25.26, 101652.95, 0.21,-0.52, 9.66, 24201
25.26, 101652.95, 0.19,-0.50, 9.60, 24206
25.26, 101652.95, 0.21,-0.57, 9.67, 24211
25.26, 101652.95, 0.33,-0.52, 9.66, 24216
25.26, 101652.95, 0.23,-0.56, 9.60, 24221
25.26, 101654.27, 0.19,-0.52, 9.66, 24226
25.26, 101654.27, 0.31,-0.56, 9.60, 24231
25.26, 101654.27, 0.27,-0.61, 9.41, 24236
25.26, 101654.27, 0.33,-0.59, 9.81, 24241
25.26, 101654.27, 0.27,-0.56, 9.35, 24246
25.26, 101654.27, 0.29,-0.54, 9.60, 24251
25.26, 101654.27, 0.27,-0.56, 9.64, 24256
25.26, 101652.62, 0.27,-0.48, 9.58, 24261
25.26, 101652.62, 0.15,-0.52, 9.54, 24266
25.26, 101652.62, 0.17,-0.50, 9.69, 24271
25.26, 101652.62, 0.17,-0.48, 9.69, 24276
25.26, 101652.62, 0.25,-0.57, 9.73, 24281
25.26, 101652.62, 0.29,-0.67, 9.58, 24286
25.26, 101652.62, 0.25,-0.56, 9.67, 24291
25.26, 101650.98, 0.19,-0.57, 9.67, 24296
25.26, 101650.98, 0.17,-0.54, 9.60, 24301
25.26, 101650.98, 0.15,-0.56, 9.66, 24306
25.26, 101650.98, 0.15,-0.56, 9.66, 24311
25.26, 101650.98, 0.17,-0.56, 9.69, 24316
25.26, 101650.98, 0.13,-0.57, 9.66, 24321
25.26, 101650.98, 0.19,-0.57, 9.62, 24326
25.26, 101651.63, 0.19,-0.56, 9.60, 24331
25.26, 101651.63, 0.17,-0.52, 9.60, 24336
25.26, 101651.63, 0.25,-0.52, 9.54, 24341
25.26, 101651.63, 0.25,-0.56, 9.62, 24346
25.26, 101651.63, 0.23,-0.57, 9.64, 24351
25.26, 101651.63, 0.31,-0.52, 9.67, 24356
25.26, 101651.63, 0.29,-0.50, 9.39, 24361
25.26, 101651.41, 0.21,-0.52, 9.56, 24366
25.26, 101651.41, 0.27,-0.52, 9.62, 24371
25.26, 101651.41, 0.33,-0.57, 9.62, 24376
25.26, 101651.41, 0.27,-0.54, 9.64, 24381
25.26, 101651.41, 0.27,-0.56, 9.66, 24386
25.26, 101651.41, 0.19,-0.61, 9.67, 24391
25.26, 101651.41, 0.19,-0.61, 9.73, 24396
25.26, 101653.78, 0.23,-0.61, 9.66, 24401
25.26, 101653.78, 0.23,-0.54, 9.58, 24406
25.26, 101653.78, 0.29,-0.57, 9.60, 24411
25.26, 101653.78, 0.23,-0.56, 9.60, 24416
25.26, 101653.78, 0.29,-0.50, 9.64, 24421
25.26, 101653.78, 0.25,-0.56, 9.64, 24426
25.26, 101653.78, 0.23,-0.56, 9.62, 24431
25.26, 101654.77, 0.25,-0.52, 9.62, 24436
25.26, 101654.77, 0.23,-0.56, 9.62, 24441
25.26, 101654.77, 0.25,-0.57, 9.52, 24446
25.26, 101654.77, 0.15,-0.69, 9.56, 24451
25.26, 101654.77, 0.17,-0.59, 9.58, 24456
25.26, 101654.77, 0.25,-0.61, 9.64, 24461
25.26, 101654.77, 0.25,-0.59, 9.71, 24466
25.26, 101654.77, 0.25,-0.54, 9.69, 24471
25.26, 101652.78, 0.29,-0.57, 9.62, 24476
25.26, 101652.78, 0.29,-0.61, 9.62, 24481
25.26, 101652.78, 0.25,-0.61, 9.56, 24486
25.26, 101652.78, 0.27,-0.56, 9.66, 24491
25.26, 101652.78, 0.23,-0.54, 9.66, 24496
25.26, 101652.78, 0.23,-0.54, 9.71, 24501
25.26, 101652.78, 0.27,-0.54, 9.67, 24506
25.26, 101650.49, 0.19,-0.56, 9.66, 24511
25.26, 101650.49, 0.23,-0.54, 9.60, 24516
25.26, 101650.49, 0.25,-0.59, 9.60, 24521
25.26, 101650.49, 0.21,-0.57, 9.62, 24526
25.26, 101650.49, 0.27,-0.50, 9.64, 24531
25.26, 101650.49, 0.31,-0.50, 9.67, 24536
25.26, 101650.49, 0.17,-0.59, 9.71, 24541
25.26, 101654.49, 0.17,-0.61, 9.67, 24546
25.26, 101654.49, 0.25,-0.65, 9.66, 24551
25.26, 101654.49, 0.23,-0.67, 9.64, 24556
25.26, 101654.49, 0.21,-0.59, 9.56, 24561
25.26, 101654.49, 0.25,-0.65, 9.62, 24566
25.26, 101654.49, 0.21,-0.54, 9.60, 24571
25.26, 101654.49, 0.25,-0.52, 9.41, 24576
25.26, 101654.00, 0.21,-0.56, 9.45, 24581
25.26, 101654.00, 0.23,-0.56, 9.52, 24586
25.26, 101654.00, 0.29,-0.59, 9.54, 24591
25.26, 101654.00, 0.19,-0.52, 9.67, 24596
25.26, 101654.00, 0.17,-0.44, 9.62, 24601
25.26, 101654.00, 0.29,-0.59, 9.69, 24606
25.26, 101654.00, 0.23,-0.63, 9.62, 24611
25.26, 101653.30, 0.23,-0.57, 9.60, 24616
25.26, 101653.30, 0.19,-0.57, 9.66, 24624
25.26, 101653.30, 0.27,-0.57, 9.62, 24628
25.26, 101653.30, 0.23,-0.57, 9.67, 24633
25.26, 101653.30, 0.29,-0.57, 9.66, 24638
25.26, 101653.30, 0.19,-0.57, 9.62, 24643
25.26, 101653.30, 0.21,-0.54, 9.62, 24648
25.26, 101651.48, 0.21,-0.54, 9.66, 24653
25.26, 101651.48, 0.19,-0.52, 9.56, 24658
25.26, 101651.48, 0.17,-0.56, 9.71, 24663
25.26, 101651.48, 0.21,-0.56, 9.85, 24668
25.26, 101651.48, 0.19,-0.59, 9.67, 24673
25.26, 101651.48, 0.19,-0.57, 9.69, 24678
25.26, 101651.48, 0.29,-0.57, 9.71, 24683
25.26, 101653.17, 0.27,-0.50, 9.69, 24688
25.26, 101653.17, 0.21,-0.50, 9.67, 24693
25.26, 101653.17, 0.31,-0.52, 9.67, 24698
25.26, 101653.17, 0.31,-0.57, 9.64, 24703
25.26, 101653.17, 0.21,-0.59, 9.66, 24708
25.26, 101653.17, 0.27,-0.57, 9.64, 24713
25.26, 101653.17, 0.31,-0.63, 9.69, 24718
25.26, 101651.14, 0.25,-0.54, 9.62, 24723
25.26, 101651.14, 0.27,-0.54, 9.69, 24728
25.26, 101651.14, 0.27,-0.52, 9.64, 24733
25.26, 101651.14, 0.36,-0.56, 9.58, 24738
25.26, 101651.14, 0.36,-0.50, 9.62, 24743
25.26, 101651.14, 0.31,-0.54, 9.60, 24748
25.26, 101651.14, 0.25,-0.56, 9.66, 24753
25.26, 101650.48, 0.17,-0.48, 9.77, 24758
25.26, 101650.48, 0.25,-0.56, 9.60, 24763
25.26, 101650.48, 0.23,-0.48, 9.62, 24768
25.26, 101650.48, 0.21,-0.52, 9.62, 24773
25.26, 101650.48, 0.31,-0.57, 9.64, 24778
25.26, 101650.48, 0.27,-0.56, 9.66, 24783
25.26, 101650.48, 0.36,-0.52, 9.64, 24788
25.26, 101653.72, 0.27,-0.50, 9.64, 24793
25.26, 101653.72, 0.21,-0.56, 9.69, 24798
25.26, 101653.72, 0.27,-0.54, 9.73, 24803
25.26, 101653.72, 0.23,-0.46, 9.75, 24808
25.26, 101653.72, 0.13,-0.56, 9.71, 24813
25.26, 101653.72, 0.15,-0.57, 9.67, 24818
25.26, 101653.72, 0.15,-0.50, 9.60, 24823
25.26, 101654.60, 0.19,-0.54, 9.64, 24828
25.26, 101654.60, 0.13,-0.59, 9.64, 24833
25.26, 101654.60, 0.19,-0.57, 9.64, 24838
25.26, 101654.60, 0.13,-0.61, 9.62, 24843
25.26, 101654.60, 0.19,-0.56, 9.66, 24848
25.26, 101654.60, 0.25,-0.54, 9.62, 24853
25.26, 101654.60, 0.19,-0.54, 9.66, 24858
25.26, 101650.64, 0.17,-0.50, 9.67, 24863
25.26, 101650.64, 0.23,-0.61, 9.56, 24868
25.26, 101650.64, 0.23,-0.57, 9.60, 24873
25.26, 101650.64, 0.21,-0.59, 9.71, 24878
25.26, 101650.64, 0.17,-0.59, 9.75, 24883
