External Temperature (C), Barometric Pressure (Pa), Acceleration X, Acceleration Y, Acceleration Z
24.92, 101643.08, 0.21,-0.59, 9.69, 2506
24.92, 101643.08, 0.23,-0.52, 9.56, 2518
24.92, 101640.71, 0.23,-0.54, 9.56, 2522
24.92, 101640.71, 0.27,-0.57, 9.64, 2527
24.92, 101640.71, 0.33,-0.56, 9.64, 2532
24.92, 101640.71, 0.23,-0.63, 9.64, 2537
24.92, 101640.71, 0.27,-0.59, 9.56, 2542
24.92, 101640.71, 0.29,-0.63, 9.50, 2547
24.92, 101640.71, 0.31,-0.48, 9.60, 2552
24.92, 101641.92, 0.33,-0.48, 9.48, 2557
24.92, 101641.92, 0.31,-0.65, 9.46, 2562
24.92, 101641.92, 0.31,-0.57, 9.69, 2567
24.92, 101641.92, 0.33,-0.54, 9.67, 2572
24.92, 101641.92, 0.36,-0.57, 9.56, 2577
24.92, 101641.92, 0.33,-0.61, 9.62, 2582
24.92, 101641.92, 0.31,-0.48, 9.62, 2587
24.92, 101641.92, 0.27,-0.54, 9.56, 2592
24.92, 101640.33, 0.27,-0.56, 9.60, 2597
24.92, 101640.33, 0.29,-0.57, 9.60, 2602
24.92, 101640.33, 0.29,-0.63, 9.77, 2607
24.92, 101640.33, 0.23,-0.61, 9.66, 2612
24.92, 101640.33, 0.17,-0.52, 9.67, 2617
24.92, 101640.33, 0.17,-0.59, 9.66, 2622
24.92, 101640.33, 0.19,-0.56, 9.71, 2627
24.92, 101641.92, 0.19,-0.56, 9.73, 2632
24.92, 101641.92, 0.13,-0.54, 9.66, 2637
24.92, 101641.92, 0.13,-0.59, 9.64, 2642
24.92, 101641.92, 0.15,-0.54, 9.52, 2647
24.92, 101641.92, 0.13,-0.56, 9.62, 2652
24.92, 101641.92, 0.17,-0.48, 9.62, 2657
24.92, 101641.92, 0.21,-0.59, 9.62, 2662
24.92, 101643.74, 0.19,-0.59, 9.45, 2667
24.92, 101643.74, 0.25,-0.57, 9.58, 2672
24.92, 101643.74, 0.25,-0.61, 9.69, 2677
24.92, 101643.74, 0.27,-0.59, 9.58, 2682
24.92, 101643.74, 0.27,-0.54, 9.62, 2687
24.92, 101643.74, 0.21,-0.50, 9.52, 2692
24.92, 101643.74, 0.27,-0.54, 9.64, 2697
24.92, 101640.38, 0.29,-0.54, 9.62, 2702
24.92, 101640.38, 0.23,-0.54, 9.56, 2707
24.92, 101640.38, 0.23,-0.57, 9.60, 2712
24.92, 101640.38, 0.19,-0.56, 9.62, 2717
24.92, 101640.38, 0.21,-0.50, 9.64, 2722
24.92, 101640.38, 0.21,-0.52, 9.64, 2727
24.92, 101640.38, 0.23,-0.59, 9.69, 2732
24.92, 101639.50, 0.17,-0.54, 9.64, 2737
24.92, 101639.50, 0.21,-0.54, 9.67, 2742
24.92, 101639.50, 0.29,-0.57, 9.71, 2747
24.92, 101639.50, 0.25,-0.59, 9.58, 2752
24.92, 101639.50, 0.21,-0.63, 9.69, 2757
24.92, 101639.50, 0.21,-0.61, 9.64, 2762
24.92, 101639.50, 0.10,-0.69, 9.52, 2767
24.92, 101640.71, 0.19,-0.65, 9.67, 2772
24.92, 101640.71, 0.23,-0.54, 9.62, 2777
24.92, 101640.71, 0.19,-0.61, 9.56, 2782
24.92, 101640.71, 0.21,-0.52, 9.60, 2787
24.92, 101640.71, 0.17,-0.56, 9.66, 2792
24.92, 101640.71, 0.23,-0.56, 9.64, 2797
24.92, 101640.71, 0.21,-0.50, 9.60, 2802
24.92, 101641.10, 0.13,-0.56, 9.62, 2807
24.92, 101641.10, 0.17,-0.56, 9.62, 2812
24.92, 101641.10, 0.25,-0.59, 9.60, 2817
24.92, 101641.10, 0.21,-0.52, 9.60, 2822
24.92, 101641.10, 0.21,-0.52, 9.56, 2827
24.92, 101641.10, 0.21,-0.59, 9.58, 2832
24.92, 101641.10, 0.23,-0.54, 9.58, 2837
24.92, 101639.28, 0.27,-0.57, 9.62, 2842
24.92, 101639.28, 0.27,-0.63, 9.69, 2847
24.92, 101639.28, 0.17,-0.57, 9.58, 2852
24.92, 101639.28, 0.21,-0.59, 9.64, 2857
24.92, 101639.28, 0.27,-0.57, 9.56, 2862
24.92, 101639.28, 0.23,-0.52, 9.60, 2867
24.92, 101639.28, 0.25,-0.63, 9.56, 2872
24.92, 101642.25, 0.25,-0.50, 9.56, 2877
24.92, 101642.25, 0.25,-0.57, 9.56, 2882
24.92, 101642.25, 0.21,-0.59, 9.67, 2887
24.92, 101642.25, 0.23,-0.57, 9.56, 2892
24.92, 101642.25, 0.19,-0.54, 9.69, 2897
24.92, 101642.25, 0.23,-0.54, 9.64, 2902
24.92, 101642.25, 0.11,-0.59, 9.60, 2907
24.92, 101639.95, 0.23,-0.56, 9.62, 2912
24.92, 101639.95, 0.17,-0.57, 9.66, 2917
24.92, 101639.95, 0.17,-0.61, 9.64, 2922
24.92, 101639.95, 0.23,-0.57, 9.62, 2927
24.92, 101639.95, 0.21,-0.61, 9.58, 2932
24.92, 101639.95, 0.19,-0.57, 9.64, 2937
24.92, 101639.95, 0.13,-0.56, 9.58, 2942
24.92, 101639.28, 0.23,-0.50, 9.60, 2947
24.92, 101639.28, 0.23,-0.56, 9.64, 2952
24.92, 101639.28, 0.21,-0.52, 9.56, 2957
24.92, 101639.28, 0.23,-0.54, 9.58, 2962
24.92, 101639.28, 0.27,-0.52, 9.60, 2967
24.92, 101639.28, 0.21,-0.57, 9.52, 2972
24.92, 101639.28, 0.23,-0.56, 9.73, 2977
24.92, 101639.28, 0.21,-0.59, 9.69, 2982
24.92, 101640.61, 0.23,-0.69, 9.69, 2987
24.92, 101640.61, 0.21,-0.73, 9.58, 2992
24.92, 101640.61, 0.25,-0.56, 9.56, 2997
24.92, 101640.61, 0.23,-0.57, 9.64, 3002
24.92, 101640.61, 0.23,-0.65, 9.46, 3007
24.92, 101640.61, 0.25,-0.61, 9.52, 3012
24.92, 101640.38, 0.29,-0.56, 9.79, 3020
24.92, 101640.38, 0.17,-0.52, 9.73, 3024
24.92, 101640.38, 0.21,-0.65, 9.67, 3029
24.92, 101640.38, 0.13,-0.52, 9.64, 3034
24.92, 101640.38, 0.15,-0.61, 9.69, 3039
24.92, 101640.38, 0.25,-0.59, 9.52, 3044
24.92, 101640.38, 0.21,-0.61, 9.60, 3049
24.92, 101642.53, 0.23,-0.61, 9.62, 3054
24.92, 101642.53, 0.21,-0.59, 9.64, 3059
24.92, 101642.53, 0.23,-0.57, 9.66, 3064
24.92, 101642.53, 0.25,-0.57, 9.71, 3069
24.92, 101642.53, 0.21,-0.65, 9.58, 3074
24.92, 101642.53, 0.15,-0.59, 9.75, 3079
24.92, 101642.53, 0.19,-0.59, 9.67, 3084
24.92, 101642.86, 0.19,-0.59, 9.62, 3089
24.92, 101642.86, 0.27,-0.57, 9.60, 3094
24.92, 101642.86, 0.29,-0.54, 9.58, 3099
24.92, 101642.86, 0.27,-0.50, 9.77, 3104
24.92, 101642.86, 0.27,-0.54, 9.69, 3109
24.92, 101642.86, 0.34,-0.52, 9.54, 3114
24.92, 101642.86, 0.29,-0.52, 9.62, 3119
24.92, 101642.86, 0.19,-0.50, 9.67, 3124
24.92, 101641.16, 0.17,-0.56, 9.66, 3129
24.92, 101641.16, 0.19,-0.61, 9.56, 3134
24.92, 101641.16, 0.19,-0.54, 9.60, 3139
24.92, 101641.16, 0.21,-0.57, 9.67, 3144
24.92, 101641.16, 0.17,-0.57, 9.66, 3149
24.92, 101641.16, 0.19,-0.65, 9.66, 3154
24.92, 101641.16, 0.23,-0.54, 9.58, 3159
24.92, 101643.01, 0.17,-0.57, 9.62, 3164
24.92, 101643.01, 0.17,-0.54, 9.60, 3169
24.92, 101643.01, 0.29,-0.56, 9.62, 3174
24.92, 101643.01, 0.21,-0.57, 9.50, 3179
24.92, 101643.01, 0.21,-0.56, 9.48, 3184
24.92, 101643.01, 0.17,-0.59, 9.60, 3189
24.92, 101643.01, 0.17,-0.56, 9.54, 3194
24.92, 101642.75, 0.25,-0.56, 9.64, 3199
24.92, 101642.75, 0.23,-0.61, 9.62, 3204
24.92, 101642.75, 0.19,-0.61, 9.79, 3209
24.92, 101642.75, 0.19,-0.61, 9.79, 3214
24.92, 101642.75, 0.17,-0.56, 9.69, 3219
24.92, 101642.75, 0.17,-0.52, 9.64, 3224
24.92, 101642.75, 0.17,-0.56, 9.62, 3229
24.92, 101644.08, 0.17,-0.57, 9.64, 3234
24.92, 101644.08, 0.27,-0.63, 9.64, 3239
24.92, 101644.08, 0.17,-0.59, 9.62, 3244
24.92, 101644.08, 0.23,-0.56, 9.64, 3249
24.92, 101644.08, 0.23,-0.59, 9.66, 3254
24.92, 101644.08, 0.19,-0.59, 9.62, 3259
24.92, 101644.08, 0.17,-0.61, 9.66, 3264
24.92, 101640.71, 0.23,-0.57, 9.66, 3269
24.92, 101640.71, 0.19,-0.56, 9.62, 3274
24.92, 101640.71, 0.17,-0.54, 9.58, 3279
24.92, 101640.71, 0.25,-0.52, 9.66, 3284
24.92, 101640.71, 0.25,-0.56, 9.60, 3289
24.92, 101640.71, 0.31,-0.57, 9.66, 3294
24.92, 101640.71, 0.25,-0.56, 9.75, 3299
24.92, 101644.83, 0.29,-0.61, 9.64, 3304
24.92, 101644.83, 0.27,-0.59, 9.62, 3309
24.92, 101644.83, 0.17,-0.61, 9.64, 3314
24.92, 101644.83, 0.29,-0.61, 9.60, 3319
24.92, 101644.83, 0.23,-0.57, 9.62, 3324
24.92, 101644.83, 0.13,-0.59, 9.60, 3329
24.92, 101644.83, 0.23,-0.63, 9.64, 3334
24.92, 101643.58, 0.21,-0.56, 9.64, 3339
24.92, 101643.58, 0.27,-0.59, 9.58, 3344
24.92, 101643.58, 0.23,-0.59, 9.62, 3349
24.92, 101643.58, 0.21,-0.59, 9.66, 3354
24.92, 101643.58, 0.21,-0.54, 9.62, 3359
24.92, 101643.58, 0.19,-0.54, 9.69, 3364
24.92, 101643.58, 0.29,-0.56, 9.67, 3369
24.92, 101643.74, 0.31,-0.57, 9.67, 3374
24.92, 101643.74, 0.23,-0.56, 9.67, 3379
24.92, 101643.74, 0.25,-0.59, 9.69, 3384
24.92, 101643.74, 0.23,-0.57, 9.67, 3389
24.92, 101643.74, 0.21,-0.54, 9.62, 3394
24.92, 101643.74, 0.23,-0.65, 9.58, 3399
24.92, 101643.74, 0.19,-0.59, 9.66, 3404
24.92, 101641.27, 0.23,-0.56, 9.58, 3409
24.92, 101641.27, 0.21,-0.54, 9.60, 3414
24.92, 101641.27, 0.23,-0.57, 9.66, 3419
24.92, 101641.27, 0.19,-0.61, 9.67, 3424
24.92, 101641.27, 0.29,-0.56, 9.79, 3429
24.92, 101641.27, 0.27,-0.63, 9.81, 3434
24.92, 101641.27, 0.15,-0.63, 9.67, 3439
24.92, 101641.76, 0.17,-0.54, 9.73, 3444
24.92, 101641.76, 0.15,-0.54, 9.67, 3449
24.92, 101641.76, 0.19,-0.59, 9.52, 3454
24.92, 101641.76, 0.19,-0.54, 9.48, 3459
24.92, 101641.76, 0.19,-0.52, 9.64, 3464
24.92, 101641.76, 0.19,-0.54, 9.62, 3469
24.92, 101641.76, 0.23,-0.52, 9.64, 3474
24.92, 101641.76, 0.27,-0.56, 9.64, 3479
24.92, 101642.90, 0.23,-0.59, 9.56, 3484
24.92, 101642.90, 0.23,-0.54, 9.64, 3489
24.92, 101642.90, 0.23,-0.56, 9.64, 3494
24.92, 101642.90, 0.23,-0.57, 9.60, 3499
24.92, 101642.90, 0.23,-0.61, 9.64, 3504
24.92, 101642.90, 0.23,-0.63, 9.66, 3509
24.92, 101642.90, 0.23,-0.57, 9.60, 3514
24.92, 101642.52, 0.19,-0.59, 9.60, 3522
24.92, 101642.52, 0.17,-0.46, 9.58, 3526
24.92, 101642.52, 0.31,-0.54, 9.64, 3531
24.92, 101642.52, 0.21,-0.59, 9.75, 3536
24.92, 101642.52, 0.17,-0.56, 9.62, 3541
24.92, 101642.52, 0.21,-0.54, 9.62, 3546
24.92, 101642.73, 0.23,-0.56, 9.54, 3551
24.92, 101642.73, 0.27,-0.56, 9.54, 3556
24.92, 101642.73, 0.15,-0.57, 9.66, 3561
24.92, 101642.73, 0.29,-0.63, 9.66, 3566
24.92, 101642.73, 0.23,-0.54, 9.60, 3571
24.92, 101642.73, 0.23,-0.57, 9.58, 3576
24.92, 101642.73, 0.25,-0.61, 9.54, 3581
24.92, 101642.24, 0.25,-0.65, 9.56, 3586
24.92, 101642.24, 0.25,-0.57, 9.64, 3591
24.92, 101642.24, 0.23,-0.57, 9.66, 3596
24.92, 101642.24, 0.19,-0.57, 9.66, 3601
24.92, 101642.24, 0.19,-0.59, 9.62, 3606
24.92, 101642.24, 0.21,-0.57, 9.66, 3611
24.92, 101642.24, 0.15,-0.59, 9.62, 3616
24.92, 101642.24, 0.21,-0.61, 9.60, 3621
24.92, 101642.41, 0.19,-0.59, 9.50, 3626
24.92, 101642.41, 0.25,-0.57, 9.64, 3631
24.92, 101642.41, 0.23,-0.63, 9.69, 3636
24.92, 101642.41, 0.19,-0.67, 9.48, 3641
24.92, 101642.41, 0.19,-0.67, 9.50, 3646
24.92, 101642.41, 0.23,-0.65, 9.46, 3651
24.92, 101642.41, 0.21,-0.61, 9.52, 3656
24.92, 101642.34, 0.25,-0.54, 9.58, 3661
24.92, 101642.34, 0.25,-0.61, 9.52, 3666
24.92, 101642.34, 0.23,-0.63, 9.62, 3671
24.92, 101642.34, 0.19,-0.61, 9.60, 3676
24.92, 101642.34, 0.19,-0.56, 9.62, 3681
24.92, 101642.34, 0.19,-0.63, 9.52, 3686
24.92, 101642.34, 0.19,-0.59, 9.58, 3691
24.92, 101645.44, 0.15,-0.57, 9.62, 3696
24.92, 101645.44, 0.19,-0.59, 9.58, 3701
24.92, 101645.44, 0.25,-0.57, 9.60, 3706
24.92, 101645.44, 0.27,-0.61, 9.60, 3711
24.92, 101645.44, 0.21,-0.57, 9.60, 3716
24.92, 101645.44, 0.17,-0.59, 9.62, 3721
24.92, 101645.44, 0.25,-0.57, 9.64, 3726
24.92, 101644.22, 0.27,-0.57, 9.50, 3731
24.92, 101644.22, 0.33,-0.57, 9.69, 3736
24.92, 101644.22, 0.34,-0.65, 9.75, 3741
24.92, 101644.22, 0.29,-0.71, 9.69, 3746
24.92, 101644.22, 0.23,-0.63, 9.67, 3751
24.92, 101644.22, 0.15,-0.59, 9.56, 3756
24.92, 101644.22, 0.19,-0.59, 9.62, 3761
24.92, 101639.39, 0.19,-0.59, 9.48, 3766
24.92, 101639.39, 0.19,-0.57, 9.50, 3771
24.92, 101639.39, 0.23,-0.52, 9.60, 3776
24.92, 101639.39, 0.29,-0.56, 9.69, 3781
24.92, 101639.39, 0.19,-0.59, 9.75, 3786
24.92, 101639.39, 0.21,-0.59, 9.69, 3791
24.92, 101639.39, 0.21,-0.56, 9.58, 3796
24.92, 101640.77, 0.23,-0.54, 9.64, 3801
24.92, 101640.77, 0.25,-0.52, 9.62, 3806
24.92, 101640.77, 0.25,-0.52, 9.66, 3811
24.92, 101640.77, 0.33,-0.50, 9.56, 3816
24.92, 101640.77, 0.31,-0.50, 9.56, 3821
24.92, 101640.77, 0.25,-0.48, 9.62, 3826
24.92, 101640.77, 0.27,-0.56, 9.60, 3831
24.92, 101641.69, 0.33,-0.57, 9.64, 3836
24.92, 101641.69, 0.33,-0.59, 9.62, 3841
24.92, 101641.69, 0.19,-0.50, 9.69, 3846
24.92, 101641.69, 0.15,-0.52, 9.56, 3851
24.92, 101641.69, 0.21,-0.63, 9.60, 3856
24.92, 101641.69, 0.25,-0.59, 9.75, 3861
24.92, 101641.69, 0.21,-0.59, 9.67, 3866
24.92, 101642.73, 0.23,-0.57, 9.56, 3871
24.92, 101642.73, 0.19,-0.59, 9.85, 3876
24.92, 101642.73, 0.11,-0.59, 9.73, 3881
24.92, 101642.73, 0.13,-0.54, 9.67, 3886
24.92, 101642.73, 0.17,-0.59, 9.75, 3891
24.92, 101642.73, 0.19,-0.61, 9.71, 3896
24.92, 101642.73, 0.23,-0.61, 9.60, 3901
24.92, 101645.11, 0.17,-0.57, 9.67, 3906
24.92, 101645.11, 0.19,-0.59, 9.66, 3911
24.92, 101645.11, 0.11,-0.56, 9.67, 3916
24.92, 101645.11, 0.19,-0.56, 9.60, 3921
24.92, 101645.11, 0.19,-0.61, 9.60, 3926
24.92, 101645.11, 0.19,-0.59, 9.62, 3931
24.92, 101645.11, 0.23,-0.52, 9.60, 3936
24.92, 101639.38, 0.21,-0.56, 9.69, 3941
24.92, 101639.38, 0.19,-0.59, 9.66, 3946
24.92, 101639.38, 0.23,-0.56, 9.60, 3951
24.92, 101639.38, 0.19,-0.57, 9.54, 3956
24.92, 101639.38, 0.15,-0.63, 9.66, 3961
24.92, 101639.38, 0.13,-0.63, 9.67, 3966
24.92, 101639.38, 0.15,-0.56, 9.45, 3971
24.92, 101639.38, 0.15,-0.57, 9.58, 3976
24.92, 101644.06, 0.21,-0.67, 9.71, 3981
24.92, 101644.06, 0.25,-0.67, 9.60, 3986
24.92, 101644.06, 0.27,-0.57, 9.58, 3991
24.92, 101644.06, 0.19,-0.67, 9.56, 3996
24.92, 101644.06, 0.23,-0.65, 9.69, 4001
24.92, 101644.06, 0.25,-0.57, 9.66, 4006
24.92, 101644.06, 0.25,-0.54, 9.62, 4011
24.92, 101643.56, 0.29,-0.52, 9.58, 4016
24.92, 101643.56, 0.27,-0.59, 9.67, 4024
24.92, 101643.56, 0.25,-0.57, 9.71, 4028
24.92, 101643.56, 0.29,-0.57, 9.64, 4033
24.92, 101643.56, 0.27,-0.65, 9.60, 4038
24.92, 101643.56, 0.31,-0.59, 9.60, 4043
24.92, 101640.04, 0.29,-0.59, 9.64, 4048
24.92, 101640.04, 0.21,-0.54, 9.58, 4053
24.92, 101640.04, 0.19,-0.54, 9.69, 4058
24.92, 101640.04, 0.29,-0.56, 9.71, 4063
24.92, 101640.04, 0.29,-0.52, 9.58, 4068
24.92, 101640.04, 0.25,-0.54, 9.48, 4073
24.92, 101640.04, 0.23,-0.57, 9.73, 4078
24.92, 101643.30, 0.19,-0.54, 9.64, 4083
24.92, 101643.30, 0.15,-0.57, 9.69, 4088
24.92, 101643.30, 0.23,-0.54, 9.77, 4093
24.92, 101643.30, 0.21,-0.56, 9.62, 4098
24.92, 101643.30, 0.21,-0.59, 9.58, 4103
24.92, 101643.30, 0.19,-0.59, 9.62, 4108
24.92, 101643.30, 0.25,-0.59, 9.67, 4113
24.92, 101643.30, 0.23,-0.57, 9.66, 4118
24.92, 101641.85, 0.25,-0.59, 9.69, 4123
24.92, 101641.85, 0.23,-0.61, 9.64, 4128
24.92, 101641.85, 0.25,-0.57, 9.62, 4133
24.92, 101641.85, 0.23,-0.59, 9.58, 4138
24.92, 101641.85, 0.13,-0.54, 9.60, 4143
24.92, 101641.85, 0.17,-0.59, 9.64, 4148
24.92, 101641.85, 0.29,-0.57, 9.66, 4153
24.92, 101640.22, 0.23,-0.56, 9.62, 4158
24.92, 101640.22, 0.19,-0.59, 9.48, 4163
24.92, 101640.22, 0.15,-0.50, 9.56, 4168
24.92, 101640.22, 0.21,-0.50, 9.62, 4173
24.92, 101640.22, 0.21,-0.44, 9.67, 4178
24.92, 101640.22, 0.27,-0.54, 9.64, 4183
24.92, 101640.22, 0.19,-0.59, 9.60, 4188
24.92, 101642.57, 0.27,-0.56, 9.58, 4193
24.92, 101642.57, 0.27,-0.57, 9.54, 4198
24.92, 101642.57, 0.29,-0.57, 9.58, 4203
24.92, 101642.57, 0.25,-0.52, 9.64, 4208
24.92, 101642.57, 0.19,-0.57, 9.60, 4213
24.92, 101642.57, 0.17,-0.59, 9.67, 4218
24.92, 101642.57, 0.19,-0.57, 9.62, 4223
24.92, 101640.98, 0.10,-0.59, 9.60, 4228
24.92, 101640.98, 0.25,-0.61, 9.64, 4233
24.92, 101640.98, 0.23,-0.56, 9.64, 4238
24.92, 101640.98, 0.25,-0.59, 9.64, 4243
24.92, 101640.98, 0.19,-0.57, 9.64, 4248
24.92, 101640.98, 0.21,-0.57, 9.62, 4253
24.92, 101640.98, 0.25,-0.57, 9.62, 4258
24.92, 101638.94, 0.23,-0.59, 9.64, 4263
24.92, 101638.94, 0.23,-0.54, 9.64, 4268
24.92, 101638.94, 0.23,-0.59, 9.54, 4273
24.92, 101638.94, 0.25,-0.59, 9.54, 4278
24.92, 101638.94, 0.21,-0.56, 9.66, 4283
24.92, 101638.94, 0.19,-0.63, 9.56, 4288
24.92, 101638.94, 0.15,-0.56, 9.62, 4293
24.92, 101640.37, 0.25,-0.54, 9.64, 4298
24.92, 101640.37, 0.29,-0.52, 9.67, 4303
24.92, 101640.37, 0.25,-0.50, 9.66, 4308
24.92, 101640.37, 0.27,-0.59, 9.52, 4313
24.92, 101640.37, 0.29,-0.56, 9.60, 4318
24.92, 101640.37, 0.21,-0.59, 9.66, 4323
24.92, 101640.37, 0.21,-0.63, 9.58, 4328
24.92, 101641.25, 0.13,-0.59, 9.62, 4333
24.92, 101641.25, 0.23,-0.56, 9.62, 4338
24.92, 101641.25, 0.17,-0.61, 9.62, 4343
24.92, 101641.25, 0.23,-0.59, 9.66, 4348
24.92, 101641.25, 0.17,-0.56, 9.54, 4353
24.92, 101641.25, 0.25,-0.61, 9.54, 4358
24.92, 101641.25, 0.29,-0.56, 9.60, 4363
24.92, 101642.30, 0.23,-0.52, 9.64, 4368
24.92, 101642.30, 0.17,-0.56, 9.56, 4373
24.92, 101642.30, 0.19,-0.56, 9.62, 4378
24.92, 101642.30, 0.21,-0.61, 9.60, 4383
24.92, 101642.30, 0.25,-0.65, 9.64, 4388
24.92, 101642.30, 0.21,-0.59, 9.66, 4393
24.92, 101642.30, 0.15,-0.59, 9.54, 4398
24.92, 101641.36, 0.21,-0.46, 9.56, 4403
24.92, 101641.36, 0.17,-0.59, 9.60, 4408
24.92, 101641.36, 0.17,-0.67, 9.69, 4413
24.92, 101641.36, 0.15,-0.52, 9.60, 4418
24.92, 101641.36, 0.27,-0.54, 9.56, 4423
24.92, 101641.36, 0.11,-0.56, 9.48, 4428
24.92, 101641.36, 0.17,-0.59, 9.22, 4433
24.92, 101641.91, 0.29,-0.52, 9.50, 4438
24.92, 101641.91, 0.23,-0.56, 9.52, 4443
24.92, 101641.91, 0.17,-0.59, 9.56, 4448
24.92, 101641.91, 0.15,-0.56, 9.62, 4453
24.92, 101641.91, 0.15,-0.57, 9.71, 4458
24.92, 101641.91, 0.27,-0.56, 9.67, 4463
24.92, 101641.91, 0.21,-0.63, 9.62, 4468
24.92, 101641.91, 0.25,-0.57, 9.64, 4473
24.92, 101640.59, 0.21,-0.57, 9.60, 4478
24.92, 101640.59, 0.19,-0.57, 9.60, 4483
24.92, 101640.59, 0.25,-0.59, 9.60, 4488
24.92, 101640.59, 0.29,-0.54, 9.66, 4493
24.92, 101640.59, 0.27,-0.54, 9.69, 4498
24.92, 101640.59, 0.21,-0.57, 9.58, 4503
24.92, 101640.59, 0.23,-0.59, 9.77, 4508
24.92, 101640.92, 0.23,-0.59, 9.62, 4513
24.92, 101640.92, 0.25,-0.56, 9.67, 4518
24.92, 101640.92, 0.23,-0.52, 9.60, 4525
24.92, 101640.92, 0.21,-0.52, 9.62, 4530
24.92, 101640.92, 0.21,-0.50, 9.64, 4535
24.92, 101640.92, 0.17,-0.56, 9.62, 4540
24.92, 101640.70, 0.21,-0.56, 9.67, 4545
24.92, 101640.70, 0.15,-0.57, 9.50, 4550
24.92, 101640.70, 0.17,-0.65, 9.60, 4555
24.92, 101640.70, 0.23,-0.59, 9.66, 4560
24.92, 101640.70, 0.15,-0.61, 9.67, 4565
24.92, 101640.70, 0.13,-0.57, 9.60, 4570
24.92, 101640.70, 0.23,-0.59, 9.62, 4575
24.92, 101641.09, 0.15,-0.61, 9.67, 4580
24.92, 101641.09, 0.13,-0.54, 9.66, 4585
24.92, 101641.09, 0.23,-0.52, 9.62, 4590
24.92, 101641.09, 0.23,-0.61, 9.66, 4595
24.92, 101641.09, 0.19,-0.61, 9.56, 4600
24.92, 101641.09, 0.25,-0.46, 9.62, 4605
24.92, 101641.09, 0.23,-0.63, 9.54, 4610
24.92, 101640.92, 0.31,-0.56, 9.66, 4615
24.92, 101640.92, 0.21,-0.56, 9.66, 4620
24.92, 101640.92, 0.25,-0.56, 9.83, 4625
24.92, 101640.92, 0.17,-0.63, 9.64, 4630
24.92, 101640.92, 0.21,-0.54, 9.66, 4635
24.92, 101640.92, 0.29,-0.61, 9.67, 4640
24.92, 101640.92, 0.31,-0.67, 9.60, 4645
24.92, 101640.92, 0.29,-0.63, 9.66, 4650
24.92, 101640.42, 0.21,-0.57, 9.66, 4655
24.92, 101640.42, 0.21,-0.57, 9.60, 4660
24.92, 101640.42, 0.23,-0.56, 9.69, 4665
24.92, 101640.42, 0.19,-0.63, 9.60, 4670
24.92, 101640.42, 0.23,-0.61, 9.62, 4675
24.92, 101640.42, 0.15,-0.59, 9.58, 4680
24.92, 101640.42, 0.15,-0.57, 9.64, 4685
24.92, 101641.91, 0.17,-0.61, 9.60, 4690
24.92, 101641.91, 0.23,-0.56, 9.66, 4695
24.92, 101641.91, 0.21,-0.61, 9.60, 4700
24.92, 101641.91, 0.21,-0.57, 9.64, 4705
24.92, 101641.91, 0.31,-0.59, 9.56, 4710
24.92, 101641.91, 0.23,-0.54, 9.54, 4715
24.92, 101641.91, 0.19,-0.61, 9.67, 4720
24.92, 101640.59, 0.17,-0.65, 9.71, 4725
24.92, 101640.59, 0.21,-0.54, 9.69, 4730
24.92, 101640.59, 0.23,-0.63, 9.73, 4735
24.92, 101640.59, 0.19,-0.59, 9.52, 4740
24.92, 101640.59, 0.19,-0.56, 9.71, 4745
24.92, 101640.59, 0.27,-0.54, 9.67, 4750
24.92, 101640.59, 0.23,-0.65, 9.67, 4755
24.92, 101639.77, 0.31,-0.57, 9.64, 4760
24.92, 101639.77, 0.23,-0.56, 9.69, 4765
24.92, 101639.77, 0.27,-0.59, 9.71, 4770
24.92, 101639.77, 0.25,-0.54, 9.67, 4775
24.92, 101639.77, 0.29,-0.50, 9.62, 4780
24.92, 101639.77, 0.23,-0.59, 9.71, 4785
24.92, 101639.77, 0.19,-0.56, 9.69, 4790
24.92, 101640.59, 0.29,-0.59, 9.69, 4795
24.92, 101640.59, 0.25,-0.54, 9.62, 4800
24.92, 101640.59, 0.23,-0.61, 9.58, 4805
24.92, 101640.59, 0.17,-0.59, 9.60, 4810
24.92, 101640.59, 0.19,-0.59, 9.60, 4815
24.92, 101640.59, 0.15,-0.57, 9.62, 4820
24.92, 101640.59, 0.19,-0.59, 9.62, 4825
24.92, 101639.11, 0.21,-0.57, 9.67, 4830
24.92, 101639.11, 0.19,-0.52, 9.69, 4835
24.92, 101639.11, 0.19,-0.61, 9.56, 4840
24.92, 101639.11, 0.17,-0.54, 9.66, 4845
24.92, 101639.11, 0.17,-0.61, 9.67, 4850
24.92, 101639.11, 0.21,-0.69, 9.79, 4855
24.92, 101639.11, 0.21,-0.61, 9.85, 4860
24.92, 101636.31, 0.19,-0.65, 9.85, 4865
24.92, 101636.31, 0.21,-0.56, 9.71, 4870
24.92, 101636.31, 0.21,-0.56, 9.64, 4875
24.92, 101636.31, 0.21,-0.59, 9.66, 4880
24.92, 101636.31, 0.21,-0.56, 9.64, 4885
24.92, 101636.31, 0.31,-0.52, 9.66, 4890
24.92, 101636.31, 0.25,-0.48, 9.67, 4895
24.92, 101642.36, 0.19,-0.54, 9.60, 4900
24.92, 101642.36, 0.27,-0.57, 9.60, 4905
24.92, 101642.36, 0.25,-0.57, 9.64, 4910
24.92, 101642.36, 0.25,-0.59, 9.62, 4915
24.92, 101642.36, 0.25,-0.61, 9.62, 4920
24.92, 101642.36, 0.25,-0.57, 9.62, 4925
24.92, 101642.36, 0.23,-0.59, 9.62, 4930
24.92, 101640.65, 0.17,-0.57, 9.62, 4935
24.92, 101640.65, 0.19,-0.65, 9.60, 4940
24.92, 101640.65, 0.25,-0.57, 9.62, 4945
24.92, 101640.65, 0.23,-0.50, 9.62, 4950
24.92, 101640.65, 0.19,-0.54, 9.35, 4955
24.92, 101640.65, 0.21,-0.63, 9.71, 4960
24.92, 101640.65, 0.21,-0.52, 9.64, 4965
24.92, 101639.83, 0.23,-0.56, 9.66, 4970
24.92, 101639.83, 0.27,-0.52, 9.62, 4975
24.92, 101639.83, 0.25,-0.52, 9.79, 4980
24.92, 101639.83, 0.25,-0.52, 9.73, 4985
24.92, 101639.83, 0.23,-0.57, 9.64, 4990
24.92, 101639.83, 0.27,-0.65, 9.54, 4995
24.92, 101639.83, 0.27,-0.63, 9.56, 5000
24.92, 101639.83, 0.27,-0.59, 9.62, 5005
24.92, 101641.20, 0.31,-0.57, 9.73, 5010
24.92, 101641.20, 0.27,-0.56, 9.67, 5015
24.92, 101641.20, 0.17,-0.57, 9.60, 5020
24.92, 101641.20, 0.21,-0.61, 9.66, 5028
24.92, 101641.20, 0.13,-0.57, 9.62, 5032
24.92, 101641.20, 0.19,-0.63, 9.52, 5037
24.92, 101641.64, 0.19,-0.56, 9.56, 5042
24.92, 101641.64, 0.27,-0.59, 9.73, 5047
24.92, 101641.64, 0.23,-0.57, 9.60, 5052
24.92, 101641.64, 0.17,-0.59, 9.67, 5057
24.92, 101641.64, 0.13,-0.61, 9.81, 5062
24.92, 101641.64, 0.23,-0.59, 9.79, 5067
24.92, 101641.64, 0.17,-0.54, 9.56, 5072
24.92, 101641.86, 0.23,-0.59, 9.56, 5077
24.92, 101641.86, 0.21,-0.63, 9.56, 5082
24.92, 101641.86, 0.23,-0.54, 9.66, 5087
24.92, 101641.86, 0.23,-0.56, 9.69, 5092
24.92, 101641.86, 0.17,-0.56, 9.56, 5097
24.92, 101641.86, 0.17,-0.61, 9.60, 5102
24.92, 101641.86, 0.19,-0.54, 9.69, 5107
24.92, 101640.05, 0.19,-0.57, 9.67, 5112
24.92, 101640.05, 0.15,-0.61, 9.66, 5117
24.92, 101640.05, 0.19,-0.61, 9.62, 5122
24.92, 101640.05, 0.19,-0.63, 9.66, 5127
24.92, 101640.05, 0.19,-0.54, 9.64, 5132
24.92, 101640.05, 0.23,-0.54, 9.62, 5137
24.92, 101640.05, 0.15,-0.56, 9.66, 5142
24.92, 101640.05, 0.13,-0.57, 9.50, 5147
24.92, 101642.19, 0.25,-0.61, 9.60, 5152
24.92, 101642.19, 0.19,-0.67, 9.75, 5157
24.92, 101642.19, 0.21,-0.61, 9.77, 5162
24.92, 101642.19, 0.31,-0.63, 9.75, 5167
24.92, 101642.19, 0.25,-0.61, 9.79, 5172
24.92, 101642.19, 0.19,-0.63, 9.71, 5177
24.92, 101642.19, 0.17,-0.57, 9.64, 5182
24.92, 101641.36, 0.21,-0.57, 9.71, 5187
24.92, 101641.36, 0.27,-0.57, 9.66, 5192
24.92, 101641.36, 0.33,-0.59, 9.62, 5197
24.92, 101641.36, 0.19,-0.54, 9.54, 5202
24.92, 101641.36, 0.25,-0.59, 9.62, 5207
24.92, 101641.36, 0.31,-0.57, 9.60, 5212
24.92, 101641.36, 0.25,-0.61, 9.66, 5217
24.92, 101641.86, 0.27,-0.63, 9.67, 5222
24.92, 101641.86, 0.25,-0.61, 9.66, 5227
24.92, 101641.86, 0.23,-0.57, 9.66, 5232
24.92, 101641.86, 0.19,-0.57, 9.60, 5237
24.92, 101641.86, 0.21,-0.59, 9.66, 5242
24.92, 101641.86, 0.21,-0.59, 9.62, 5247
24.92, 101641.86, 0.27,-0.59, 9.62, 5252
24.92, 101641.64, 0.33,-0.56, 9.66, 5257
24.92, 101641.64, 0.23,-0.52, 9.73, 5262
24.92, 101641.64, 0.23,-0.50, 9.52, 5267
24.92, 101641.64, 0.23,-0.52, 9.41, 5272
24.92, 101641.64, 0.21,-0.52, 9.62, 5277
24.92, 101641.64, 0.21,-0.59, 9.62, 5282
24.92, 101641.64, 0.11,-0.56, 9.62, 5287
24.92, 101643.12, 0.19,-0.63, 9.62, 5292
24.92, 101643.12, 0.29,-0.57, 9.58, 5297
24.92, 101643.12, 0.23,-0.54, 9.60, 5302
24.92, 101643.12, 0.19,-0.52, 9.56, 5307
24.92, 101643.12, 0.15,-0.56, 9.58, 5312
24.92, 101643.12, 0.21,-0.63, 9.58, 5317
24.92, 101643.12, 0.23,-0.65, 9.62, 5322
24.92, 101641.31, 0.25,-0.59, 9.62, 5327
24.92, 101641.31, 0.19,-0.52, 9.62, 5332
24.92, 101641.31, 0.19,-0.57, 9.62, 5337
24.92, 101641.31, 0.21,-0.57, 9.62, 5342
24.92, 101641.31, 0.23,-0.63, 9.56, 5347
24.92, 101641.31, 0.25,-0.59, 9.64, 5352
24.92, 101641.31, 0.17,-0.59, 9.54, 5357
24.92, 101642.80, 0.15,-0.56, 9.64, 5362
24.92, 101642.80, 0.19,-0.57, 9.64, 5367
24.92, 101642.80, 0.17,-0.57, 9.60, 5372
24.92, 101642.80, 0.23,-0.61, 9.66, 5377
24.92, 101642.80, 0.21,-0.57, 9.54, 5382
24.92, 101642.80, 0.27,-0.54, 9.52, 5387
24.92, 101642.80, 0.23,-0.61, 9.71, 5392
24.92, 101638.28, 0.19,-0.61, 9.69, 5397
24.92, 101638.28, 0.23,-0.61, 9.66, 5402
24.92, 101638.28, 0.38,-0.61, 9.58, 5407
24.92, 101638.28, 0.25,-0.56, 9.60, 5412
24.92, 101638.28, 0.25,-0.56, 9.67, 5417
24.92, 101638.28, 0.23,-0.56, 9.64, 5422
24.92, 101638.28, 0.15,-0.56, 9.58, 5427
24.92, 101639.59, 0.17,-0.57, 9.62, 5432
24.92, 101639.59, 0.31,-0.59, 9.66, 5437
24.92, 101639.59, 0.25,-0.56, 9.66, 5442
24.92, 101639.59, 0.21,-0.54, 9.60, 5447
24.92, 101639.59, 0.23,-0.56, 9.64, 5452
24.92, 101639.59, 0.19,-0.59, 9.62, 5457
24.92, 101639.59, 0.29,-0.63, 9.54, 5462
24.92, 101640.55, 0.29,-0.63, 9.58, 5467
24.92, 101640.55, 0.29,-0.61, 9.66, 5472
24.92, 101640.55, 0.29,-0.61, 9.50, 5477
24.92, 101640.55, 0.29,-0.67, 9.41, 5482
24.92, 101640.55, 0.27,-0.50, 9.54, 5487
24.92, 101640.55, 0.31,-0.57, 9.66, 5492
24.92, 101640.55, 0.29,-0.48, 9.62, 5497
24.92, 101640.55, 0.27,-0.61, 9.66, 5502
24.92, 101641.04, 0.25,-0.52, 9.64, 5507
24.92, 101641.04, 0.27,-0.54, 9.64, 5512
24.92, 101641.04, 0.25,-0.48, 9.64, 5517
24.92, 101641.04, 0.15,-0.52, 9.69, 5522
24.92, 101641.04, 0.19,-0.54, 9.58, 5530
24.92, 101641.04, 0.19,-0.59, 9.64, 5534
24.92, 101642.12, 0.21,-0.61, 9.60, 5539
24.92, 101642.12, 0.17,-0.63, 9.60, 5544
24.92, 101642.12, 0.23,-0.52, 9.67, 5549
24.92, 101642.12, 0.25,-0.56, 9.73, 5554
24.92, 101642.12, 0.15,-0.63, 9.71, 5559
24.92, 101642.12, 0.17,-0.59, 9.58, 5564
24.92, 101642.12, 0.17,-0.61, 9.56, 5569
24.92, 101643.11, 0.23,-0.54, 9.48, 5574
24.92, 101643.11, 0.19,-0.56, 9.37, 5579
24.92, 101643.11, 0.23,-0.57, 9.69, 5584
24.92, 101643.11, 0.25,-0.57, 9.71, 5589
24.92, 101643.11, 0.25,-0.63, 9.66, 5594
24.92, 101643.11, 0.21,-0.59, 9.62, 5599
24.92, 101643.11, 0.25,-0.57, 9.58, 5604
24.92, 101640.70, 0.17,-0.46, 9.64, 5609
24.92, 101640.70, 0.25,-0.56, 9.67, 5614
24.92, 101640.70, 0.27,-0.57, 9.64, 5619
24.92, 101640.70, 0.15,-0.56, 9.67, 5624
24.92, 101640.70, 0.19,-0.57, 9.66, 5629
24.92, 101640.70, 0.23,-0.57, 9.60, 5634
24.92, 101640.70, 0.23,-0.61, 9.66, 5639
24.92, 101640.70, 0.19,-0.61, 9.64, 5644
24.92, 101640.16, 0.19,-0.56, 9.60, 5649
24.92, 101640.16, 0.25,-0.57, 9.62, 5654
24.92, 101640.16, 0.21,-0.56, 9.71, 5659
24.92, 101640.16, 0.21,-0.42, 9.62, 5664
24.92, 101640.16, 0.23,-0.57, 9.69, 5669
24.92, 101640.16, 0.27,-0.65, 9.60, 5674
24.92, 101640.16, 0.17,-0.50, 9.62, 5679
24.92, 101640.38, 0.19,-0.50, 9.58, 5684
24.92, 101640.38, 0.23,-0.57, 9.69, 5689
24.92, 101640.38, 0.21,-0.57, 9.66, 5694
24.92, 101640.38, 0.27,-0.56, 9.64, 5699
24.92, 101640.38, 0.23,-0.61, 9.62, 5704
24.92, 101640.38, 0.25,-0.57, 9.64, 5709
24.92, 101640.38, 0.23,-0.54, 9.62, 5714
24.92, 101640.16, 0.21,-0.59, 9.62, 5719
24.92, 101640.16, 0.21,-0.57, 9.62, 5724
24.92, 101640.16, 0.21,-0.59, 9.66, 5729
24.92, 101640.16, 0.19,-0.56, 9.64, 5734
24.92, 101640.16, 0.27,-0.52, 9.62, 5739
24.92, 101640.16, 0.27,-0.57, 9.60, 5744
24.92, 101640.16, 0.29,-0.50, 9.62, 5749
24.92, 101638.45, 0.25,-0.52, 9.64, 5754
24.92, 101638.45, 0.27,-0.56, 9.64, 5759
24.92, 101638.45, 0.25,-0.57, 9.64, 5764
24.92, 101638.45, 0.29,-0.59, 9.69, 5769
24.92, 101638.45, 0.25,-0.54, 9.64, 5774
24.92, 101638.45, 0.27,-0.61, 9.56, 5779
24.92, 101638.45, 0.29,-0.63, 9.64, 5784
24.92, 101638.83, 0.27,-0.57, 9.71, 5789
24.92, 101638.83, 0.25,-0.54, 9.46, 5794
24.92, 101638.83, 0.25,-0.54, 9.66, 5799
24.92, 101638.83, 0.21,-0.59, 9.75, 5804
24.92, 101638.83, 0.23,-0.52, 9.67, 5809
24.92, 101638.83, 0.27,-0.54, 9.66, 5814
24.92, 101638.83, 0.19,-0.59, 9.62, 5819
24.92, 101640.38, 0.19,-0.57, 9.62, 5824
24.92, 101640.38, 0.25,-0.56, 9.58, 5829
24.92, 101640.38, 0.19,-0.57, 9.54, 5834
24.92, 101640.38, 0.17,-0.54, 9.50, 5839
24.92, 101640.38, 0.23,-0.56, 9.62, 5844
24.92, 101640.38, 0.17,-0.54, 9.62, 5849
24.92, 101640.38, 0.15,-0.56, 9.66, 5854
24.92, 101636.30, 0.25,-0.57, 9.64, 5859
24.92, 101636.30, 0.17,-0.59, 9.64, 5864
24.92, 101636.30, 0.23,-0.59, 9.64, 5869
24.92, 101636.30, 0.23,-0.52, 9.66, 5874
24.92, 101636.30, 0.25,-0.61, 9.62, 5879
24.92, 101636.30, 0.21,-0.59, 9.50, 5884
24.92, 101636.30, 0.15,-0.56, 9.64, 5889
24.92, 101639.00, 0.25,-0.63, 9.87, 5894
24.92, 101639.00, 0.21,-0.56, 9.69, 5899
24.92, 101639.00, 0.19,-0.59, 9.64, 5904
24.92, 101639.00, 0.15,-0.56, 9.41, 5909
24.92, 101639.00, 0.15,-0.54, 9.60, 5914
24.92, 101639.00, 0.23,-0.52, 9.58, 5919
24.92, 101639.00, 0.21,-0.52, 9.56, 5924
24.92, 101639.72, 0.29,-0.59, 9.56, 5929
24.92, 101639.72, 0.23,-0.61, 9.66, 5934
24.92, 101639.72, 0.27,-0.56, 9.60, 5939
24.92, 101639.72, 0.29,-0.56, 9.62, 5944
24.92, 101639.72, 0.25,-0.57, 9.64, 5949
24.92, 101639.72, 0.21,-0.56, 9.62, 5954
24.92, 101639.72, 0.25,-0.57, 9.66, 5959
24.92, 101640.05, 0.23,-0.61, 9.60, 5964
24.92, 101640.05, 0.27,-0.61, 9.66, 5969
24.92, 101640.05, 0.23,-0.57, 9.64, 5974
24.92, 101640.05, 0.23,-0.59, 9.64, 5979
24.92, 101640.05, 0.21,-0.59, 9.69, 5984
24.92, 101640.05, 0.23,-0.54, 9.71, 5989
24.92, 101640.05, 0.23,-0.56, 9.62, 5994
24.92, 101638.28, 0.13,-0.56, 9.58, 5999
24.92, 101638.28, 0.25,-0.59, 9.66, 6004
24.92, 101638.28, 0.15,-0.57, 9.64, 6009
24.92, 101638.28, 0.23,-0.69, 9.75, 6014
24.92, 101638.28, 0.17,-0.65, 9.75, 6019
24.92, 101638.28, 0.21,-0.61, 9.60, 6024
24.92, 101638.28, 0.25,-0.57, 9.50, 6032
24.92, 101639.39, 0.21,-0.56, 9.52, 6036
24.92, 101639.39, 0.17,-0.54, 9.66, 6041
24.92, 101639.39, 0.23,-0.54, 9.64, 6046
24.92, 101639.39, 0.23,-0.57, 9.64, 6051
24.92, 101639.39, 0.27,-0.59, 9.62, 6056
24.92, 101639.39, 0.27,-0.54, 9.64, 6061
24.92, 101639.39, 0.17,-0.54, 9.66, 6066
24.92, 101637.73, 0.19,-0.52, 9.69, 6071
24.92, 101637.73, 0.25,-0.52, 9.62, 6076
24.92, 101637.73, 0.19,-0.56, 9.54, 6081
24.92, 101637.73, 0.17,-0.57, 9.52, 6086
24.92, 101637.73, 0.23,-0.61, 9.60, 6091
24.92, 101637.73, 0.31,-0.69, 9.87, 6096
24.92, 101637.73, 0.27,-0.56, 9.62, 6101
24.92, 101638.83, 0.27,-0.52, 9.58, 6106
24.92, 101638.83, 0.19,-0.52, 9.41, 6111
24.92, 101638.83, 0.21,-0.56, 9.58, 6116
24.92, 101638.83, 0.29,-0.56, 9.56, 6121
24.92, 101638.83, 0.17,-0.50, 9.62, 6126
24.92, 101638.83, 0.25,-0.50, 9.60, 6131
24.92, 101638.83, 0.21,-0.61, 9.69, 6136
24.92, 101639.31, 0.19,-0.61, 9.66, 6141
24.92, 101639.31, 0.15,-0.56, 9.56, 6146
24.92, 101639.31, 0.17,-0.59, 9.60, 6151
24.92, 101639.31, 0.25,-0.59, 9.64, 6156
24.92, 101639.31, 0.25,-0.56, 9.67, 6161
24.92, 101639.31, 0.25,-0.54, 9.62, 6166
24.92, 101639.31, 0.19,-0.54, 9.62, 6171
24.92, 101639.31, 0.27,-0.59, 9.69, 6176
24.92, 101639.86, 0.23,-0.54, 9.62, 6181
24.92, 101639.86, 0.29,-0.56, 9.58, 6186
24.92, 101639.86, 0.29,-0.61, 9.62, 6191
24.92, 101639.86, 0.21,-0.57, 9.62, 6196
24.92, 101639.86, 0.31,-0.56, 9.67, 6201
24.92, 101639.86, 0.23,-0.56, 9.56, 6206
24.92, 101639.86, 0.25,-0.57, 9.71, 6211
24.92, 101638.98, 0.11,-0.56, 9.79, 6216
24.92, 101638.98, 0.17,-0.59, 9.73, 6221
24.92, 101638.98, 0.23,-0.56, 9.81, 6226
24.92, 101638.98, 0.19,-0.65, 9.81, 6231
24.92, 101638.98, 0.25,-0.61, 9.71, 6236
24.92, 101638.98, 0.23,-0.63, 9.66, 6241
24.92, 101638.98, 0.25,-0.63, 9.71, 6246
24.92, 101639.22, 0.23,-0.50, 9.62, 6251
24.92, 101639.22, 0.33,-0.59, 9.58, 6256
24.92, 101639.22, 0.25,-0.63, 9.67, 6261
24.92, 101639.22, 0.25,-0.54, 9.66, 6266
24.92, 101639.22, 0.25,-0.56, 9.66, 6271
24.92, 101639.22, 0.25,-0.52, 9.64, 6276
24.92, 101639.22, 0.29,-0.56, 9.66, 6281
24.92, 101640.86, 0.29,-0.56, 9.66, 6286
24.92, 101640.86, 0.23,-0.52, 9.66, 6291
24.92, 101640.86, 0.23,-0.54, 9.66, 6296
24.92, 101640.86, 0.23,-0.52, 9.64, 6301
24.92, 101640.86, 0.25,-0.57, 9.62, 6306
24.92, 101640.86, 0.23,-0.63, 9.69, 6311
24.92, 101640.86, 0.23,-0.61, 9.69, 6316
24.92, 101637.91, 0.19,-0.57, 9.64, 6321
24.92, 101637.91, 0.25,-0.63, 9.62, 6326
24.92, 101637.91, 0.19,-0.57, 9.75, 6331
24.92, 101637.91, 0.25,-0.61, 9.81, 6336
24.92, 101637.91, 0.17,-0.65, 9.75, 6341
24.92, 101637.91, 0.21,-0.59, 9.67, 6346
24.92, 101637.91, 0.27,-0.57, 9.73, 6351
24.92, 101641.35, 0.19,-0.57, 9.56, 6356
24.92, 101641.35, 0.21,-0.69, 9.67, 6361
24.92, 101641.35, 0.21,-0.65, 9.58, 6366
24.92, 101641.35, 0.21,-0.57, 9.64, 6371
24.92, 101641.35, 0.23,-0.61, 9.66, 6376
24.92, 101641.35, 0.21,-0.59, 9.62, 6381
24.92, 101641.35, 0.17,-0.56, 9.66, 6386
24.92, 101641.53, 0.31,-0.56, 9.66, 6391
24.92, 101641.53, 0.27,-0.52, 9.66, 6396
24.92, 101641.53, 0.21,-0.52, 9.67, 6401
24.92, 101641.53, 0.25,-0.50, 9.62, 6406
24.92, 101641.53, 0.21,-0.56, 9.66, 6411
24.92, 101641.53, 0.21,-0.50, 9.64, 6416
24.92, 101641.53, 0.15,-0.59, 9.56, 6421
24.92, 101641.02, 0.19,-0.59, 9.67, 6426
24.92, 101641.02, 0.23,-0.52, 9.66, 6431
24.92, 101641.02, 0.27,-0.56, 9.67, 6436
24.92, 101641.02, 0.25,-0.59, 9.67, 6441
24.92, 101641.02, 0.25,-0.54, 9.71, 6446
24.92, 101641.02, 0.21,-0.54, 9.71, 6451
24.92, 101641.02, 0.15,-0.56, 9.62, 6456
24.92, 101637.73, 0.13,-0.48, 9.62, 6461
24.92, 101637.73, 0.17,-0.57, 9.64, 6466
24.92, 101637.73, 0.23,-0.56, 9.58, 6471
24.92, 101637.73, 0.13,-0.50, 9.62, 6476
24.92, 101637.73, 0.15,-0.59, 9.62, 6481
24.92, 101637.73, 0.19,-0.57, 9.64, 6486
24.92, 101637.73, 0.25,-0.59, 9.75, 6491
24.92, 101639.48, 0.29,-0.61, 9.66, 6496
24.92, 101639.48, 0.19,-0.57, 9.62, 6501
24.92, 101639.48, 0.15,-0.52, 9.64, 6506
24.92, 101639.48, 0.17,-0.57, 9.60, 6511
24.92, 101639.48, 0.23,-0.52, 9.60, 6516
24.92, 101639.48, 0.17,-0.57, 9.62, 6521
24.92, 101639.48, 0.19,-0.59, 9.66, 6526
24.92, 101638.72, 0.21,-0.50, 9.62, 6540
24.92, 101638.72, 0.27,-0.56, 9.66, 6544
24.92, 101638.72, 0.25,-0.61, 9.64, 6549
24.92, 101638.72, 0.31,-0.59, 9.67, 6554
24.92, 101638.72, 0.23,-0.56, 9.60, 6559
24.92, 101638.72, 0.25,-0.52, 9.60, 6564
24.92, 101639.70, 0.29,-0.56, 9.62, 6569
24.92, 101639.70, 0.33,-0.57, 9.66, 6574
24.92, 101639.70, 0.29,-0.56, 9.64, 6579
24.92, 101639.70, 0.27,-0.54, 9.39, 6584
24.92, 101639.70, 0.27,-0.65, 9.45, 6589
24.92, 101639.70, 0.27,-0.59, 9.50, 6594
24.92, 101639.70, 0.29,-0.56, 9.69, 6599
24.92, 101639.48, 0.19,-0.52, 9.58, 6604
24.92, 101639.48, 0.29,-0.48, 9.60, 6609
24.92, 101639.48, 0.27,-0.54, 9.62, 6614
24.92, 101639.48, 0.27,-0.52, 9.67, 6619
24.92, 101639.48, 0.21,-0.57, 9.64, 6624
24.92, 101639.48, 0.25,-0.56, 9.54, 6629
24.92, 101639.48, 0.19,-0.54, 9.60, 6634
24.92, 101641.52, 0.23,-0.56, 9.71, 6639
24.92, 101641.52, 0.21,-0.61, 9.60, 6644
24.92, 101641.52, 0.23,-0.59, 9.62, 6649
24.92, 101641.52, 0.23,-0.57, 9.60, 6654
24.92, 101641.52, 0.21,-0.59, 9.60, 6659
24.92, 101641.52, 0.23,-0.57, 9.60, 6664
24.92, 101641.52, 0.19,-0.57, 9.60, 6669
24.92, 101637.91, 0.23,-0.59, 9.64, 6674
24.92, 101637.91, 0.21,-0.56, 9.69, 6679
24.92, 101637.91, 0.29,-0.59, 9.69, 6684
24.92, 101637.91, 0.19,-0.65, 9.66, 6689
24.92, 101637.91, 0.17,-0.63, 9.64, 6694
24.92, 101637.91, 0.17,-0.50, 9.58, 6699
24.92, 101637.91, 0.23,-0.50, 9.60, 6704
24.92, 101640.03, 0.31,-0.52, 9.48, 6709
24.92, 101640.03, 0.19,-0.52, 9.62, 6714
24.92, 101640.03, 0.27,-0.59, 9.52, 6719
24.92, 101640.03, 0.23,-0.59, 9.58, 6724
24.92, 101640.03, 0.19,-0.59, 9.67, 6729
24.92, 101640.03, 0.19,-0.59, 9.67, 6734
24.92, 101640.03, 0.23,-0.54, 9.67, 6739
24.92, 101640.03, 0.27,-0.48, 9.64, 6744
24.92, 101640.36, 0.21,-0.54, 9.71, 6749
24.92, 101640.36, 0.25,-0.56, 9.66, 6754
24.92, 101640.36, 0.21,-0.54, 9.60, 6759
24.92, 101640.36, 0.23,-0.56, 9.64, 6764
24.92, 101640.36, 0.23,-0.57, 9.66, 6769
24.92, 101640.36, 0.23,-0.57, 9.60, 6774
24.92, 101640.36, 0.23,-0.52, 9.64, 6779
24.92, 101638.23, 0.19,-0.59, 9.64, 6784
24.92, 101638.23, 0.23,-0.56, 9.62, 6789
24.92, 101638.23, 0.15,-0.63, 9.54, 6794
24.92, 101638.23, 0.19,-0.57, 9.56, 6799
24.92, 101638.23, 0.21,-0.65, 9.66, 6804
24.92, 101638.23, 0.25,-0.59, 9.66, 6809
24.92, 101638.23, 0.23,-0.56, 9.73, 6814
24.92, 101641.84, 0.23,-0.56, 9.77, 6819
24.92, 101641.84, 0.29,-0.52, 9.73, 6824
24.92, 101641.84, 0.25,-0.46, 9.71, 6829
24.92, 101641.84, 0.25,-0.57, 9.79, 6834
24.92, 101641.84, 0.23,-0.57, 9.67, 6839
24.92, 101641.84, 0.25,-0.59, 9.62, 6844
24.92, 101641.84, 0.29,-0.50, 9.52, 6849
24.92, 101639.31, 0.33,-0.54, 9.64, 6854
24.92, 101639.31, 0.27,-0.57, 9.60, 6859
24.92, 101639.31, 0.29,-0.50, 9.69, 6864
24.92, 101639.31, 0.23,-0.56, 9.58, 6869
24.92, 101639.31, 0.21,-0.57, 9.62, 6874
24.92, 101639.31, 0.19,-0.59, 9.58, 6879
24.92, 101639.31, 0.19,-0.59, 9.58, 6884
24.92, 101637.99, 0.21,-0.57, 9.60, 6889
24.92, 101637.99, 0.23,-0.52, 9.66, 6894
24.92, 101637.99, 0.21,-0.52, 9.64, 6899
24.92, 101637.99, 0.19,-0.54, 9.64, 6904
24.92, 101637.99, 0.29,-0.61, 9.60, 6909
24.92, 101637.99, 0.19,-0.65, 9.66, 6914
24.92, 101637.99, 0.17,-0.67, 9.94, 6919
24.92, 101639.81, 0.19,-0.56, 9.56, 6924
24.92, 101639.81, 0.19,-0.56, 9.75, 6929
24.92, 101639.81, 0.23,-0.56, 9.69, 6934
24.92, 101639.81, 0.27,-0.52, 9.69, 6939
24.92, 101639.81, 0.23,-0.57, 9.69, 6944
24.92, 101639.81, 0.23,-0.59, 9.66, 6949
24.92, 101639.81, 0.21,-0.54, 9.64, 6954
24.92, 101638.40, 0.27,-0.57, 9.62, 6959
24.92, 101638.40, 0.19,-0.57, 9.67, 6964
24.92, 101638.40, 0.23,-0.57, 9.69, 6969
24.92, 101638.40, 0.21,-0.54, 9.67, 6974
24.92, 101638.40, 0.19,-0.61, 9.64, 6979
24.92, 101638.40, 0.21,-0.56, 9.60, 6984
24.92, 101638.40, 0.25,-0.63, 9.62, 6989
24.92, 101641.69, 0.23,-0.57, 9.60, 6994
24.92, 101641.69, 0.19,-0.57, 9.60, 6999
24.92, 101641.69, 0.21,-0.56, 9.58, 7004
24.92, 101641.69, 0.17,-0.54, 9.60, 7009
24.92, 101641.69, 0.21,-0.57, 9.58, 7014
24.92, 101641.69, 0.17,-0.48, 9.54, 7019
24.92, 101641.69, 0.25,-0.52, 9.64, 7024
24.92, 101641.69, 0.25,-0.57, 9.71, 7029
24.92, 101641.69, 0.21,-0.56, 9.56, 7034
24.92, 101641.69, 0.25,-0.61, 9.58, 7041
24.92, 101641.69, 0.27,-0.59, 9.52, 7046
24.92, 101641.69, 0.27,-0.61, 9.64, 7051
24.92, 101641.69, 0.27,-0.61, 9.62, 7056
24.92, 101641.69, 0.25,-0.59, 9.60, 7061
24.92, 101640.88, 0.31,-0.63, 9.62, 7066
24.92, 101640.88, 0.25,-0.63, 9.66, 7071
24.92, 101640.88, 0.27,-0.57, 9.64, 7076
24.92, 101640.88, 0.23,-0.54, 9.69, 7081
24.92, 101640.88, 0.25,-0.57, 9.64, 7086
24.92, 101640.88, 0.23,-0.57, 9.60, 7091
24.92, 101640.88, 0.23,-0.54, 9.56, 7096
24.92, 101637.02, 0.21,-0.61, 9.58, 7101
24.92, 101637.02, 0.19,-0.54, 9.58, 7106
24.92, 101637.02, 0.25,-0.54, 9.69, 7111
24.92, 101637.02, 0.25,-0.57, 9.64, 7116
24.92, 101637.02, 0.29,-0.59, 9.71, 7121
24.92, 101637.02, 0.29,-0.57, 9.73, 7126
24.92, 101637.02, 0.17,-0.63, 9.67, 7131
24.92, 101640.21, 0.25,-0.61, 9.48, 7136
24.92, 101640.21, 0.27,-0.67, 9.69, 7141
24.92, 101640.21, 0.21,-0.59, 9.60, 7146
24.92, 101640.21, 0.27,-0.50, 9.64, 7151
24.92, 101640.21, 0.21,-0.59, 9.58, 7156
24.92, 101640.21, 0.23,-0.57, 9.56, 7161
24.92, 101640.21, 0.25,-0.57, 9.56, 7166
24.92, 101642.50, 0.27,-0.59, 9.62, 7171
24.92, 101642.50, 0.23,-0.63, 9.62, 7176
24.92, 101642.50, 0.15,-0.57, 9.60, 7181
24.92, 101642.50, 0.17,-0.52, 9.66, 7186
24.92, 101642.50, 0.19,-0.54, 9.62, 7191
24.92, 101642.50, 0.27,-0.59, 9.64, 7196
24.92, 101642.50, 0.27,-0.61, 9.66, 7201
24.92, 101642.02, 0.27,-0.59, 9.62, 7206
24.92, 101642.02, 0.31,-0.52, 9.64, 7211
24.92, 101642.02, 0.29,-0.59, 9.64, 7216
24.92, 101642.02, 0.25,-0.52, 9.73, 7221
24.92, 101642.02, 0.27,-0.54, 9.60, 7226
24.92, 101642.02, 0.23,-0.57, 9.31, 7231
24.92, 101642.02, 0.25,-0.59, 9.45, 7236
24.92, 101642.67, 0.23,-0.57, 9.54, 7241
24.92, 101642.67, 0.21,-0.54, 9.54, 7246
24.92, 101642.67, 0.15,-0.59, 9.62, 7251
24.92, 101642.67, 0.17,-0.61, 9.62, 7256
24.92, 101642.67, 0.23,-0.61, 9.62, 7261
24.92, 101642.67, 0.25,-0.61, 9.56, 7266
24.92, 101642.67, 0.23,-0.52, 9.64, 7271
24.92, 101642.67, 0.27,-0.57, 9.54, 7276
24.92, 101641.52, 0.23,-0.54, 9.64, 7281
24.92, 101641.52, 0.21,-0.52, 9.60, 7286
24.92, 101641.52, 0.25,-0.59, 9.62, 7291
24.92, 101641.52, 0.15,-0.57, 9.60, 7296
24.92, 101641.52, 0.25,-0.56, 9.60, 7301
24.92, 101641.52, 0.31,-0.52, 9.66, 7306
24.92, 101641.52, 0.21,-0.52, 9.60, 7311
24.92, 101639.39, 0.25,-0.61, 9.62, 7316
24.92, 101639.39, 0.23,-0.61, 9.60, 7321
24.92, 101639.39, 0.25,-0.67, 9.60, 7326
24.92, 101639.39, 0.25,-0.57, 9.62, 7331
24.92, 101639.39, 0.27,-0.54, 9.67, 7336
24.92, 101639.39, 0.17,-0.54, 9.62, 7341
24.92, 101639.39, 0.19,-0.61, 9.73, 7346
24.92, 101642.50, 0.31,-0.48, 9.56, 7351
24.92, 101642.50, 0.23,-0.56, 9.64, 7356
24.92, 101642.50, 0.21,-0.61, 9.62, 7361
24.92, 101642.50, 0.23,-0.59, 9.54, 7366
24.92, 101642.50, 0.15,-0.57, 9.60, 7371
24.92, 101642.50, 0.17,-0.63, 9.69, 7376
24.92, 101642.50, 0.25,-0.54, 9.69, 7381
24.92, 101642.28, 0.25,-0.56, 9.66, 7386
24.92, 101642.28, 0.21,-0.56, 9.58, 7391
24.92, 101642.28, 0.19,-0.59, 9.66, 7396
24.92, 101642.28, 0.13,-0.56, 9.66, 7401
24.92, 101642.28, 0.23,-0.59, 9.64, 7406
24.92, 101642.28, 0.19,-0.61, 9.58, 7411
24.92, 101642.28, 0.19,-0.57, 9.64, 7416
24.92, 101642.67, 0.23,-0.59, 9.67, 7421
24.92, 101642.67, 0.19,-0.56, 9.66, 7426
24.92, 101642.67, 0.21,-0.61, 9.69, 7431
24.92, 101642.67, 0.25,-0.63, 9.60, 7436
24.92, 101642.67, 0.27,-0.52, 9.69, 7441
24.92, 101642.67, 0.23,-0.57, 9.62, 7446
24.92, 101642.67, 0.19,-0.57, 9.62, 7451
24.92, 101639.53, 0.19,-0.61, 9.67, 7456
24.92, 101639.53, 0.21,-0.56, 9.54, 7461
24.92, 101639.53, 0.25,-0.54, 9.64, 7466
24.92, 101639.53, 0.25,-0.56, 9.46, 7471
24.92, 101639.53, 0.19,-0.52, 9.50, 7476
24.92, 101639.53, 0.25,-0.54, 9.56, 7481
24.92, 101639.53, 0.21,-0.50, 9.56, 7486
24.92, 101638.40, 0.27,-0.54, 9.58, 7491
24.92, 101638.40, 0.27,-0.65, 9.64, 7496
24.92, 101638.40, 0.21,-0.63, 9.54, 7501
24.92, 101638.40, 0.25,-0.56, 9.56, 7506
24.92, 101638.40, 0.23,-0.59, 9.64, 7511
24.92, 101638.40, 0.21,-0.56, 9.73, 7516
24.92, 101638.40, 0.25,-0.59, 9.69, 7521
24.92, 101641.02, 0.21,-0.57, 9.71, 7526
24.92, 101641.02, 0.21,-0.56, 9.64, 7531
24.92, 101641.02, 0.19,-0.52, 9.62, 7536
