External Temperature (C), Barometric Pressure (Pa), Acceleration X, Acceleration Y, Acceleration Z
25.02, 101644.41, 0.21,-0.57, 9.69, 4414
25.02, 101645.90, 0.21,-0.56, 9.66, 4425
25.02, 101645.90, 0.23,-0.52, 9.66, 4429
25.02, 101645.90, 0.25,-0.57, 9.73, 4434
25.02, 101645.90, 0.23,-0.57, 9.81, 4439
25.02, 101645.90, 0.27,-0.52, 9.69, 4444
25.02, 101645.90, 0.23,-0.57, 9.64, 4449
25.02, 101645.90, 0.17,-0.52, 9.64, 4454
25.02, 101645.47, 0.25,-0.59, 9.64, 4459
25.02, 101645.47, 0.27,-0.56, 9.60, 4464
25.02, 101645.47, 0.29,-0.56, 9.62, 4469
25.02, 101645.47, 0.29,-0.50, 9.58, 4474
25.02, 101645.47, 0.31,-0.57, 9.64, 4479
25.02, 101645.47, 0.25,-0.59, 9.62, 4484
25.02, 101645.47, 0.23,-0.59, 9.62, 4489
25.02, 101645.89, 0.29,-0.56, 9.64, 4494
25.02, 101645.89, 0.27,-0.56, 9.54, 4499
25.02, 101645.89, 0.27,-0.56, 9.60, 4504
25.02, 101645.89, 0.23,-0.56, 9.62, 4509
25.02, 101645.89, 0.21,-0.54, 9.56, 4514
25.02, 101645.89, 0.19,-0.54, 9.64, 4519
25.02, 101645.89, 0.15,-0.48, 9.73, 4524
25.02, 101644.47, 0.23,-0.61, 9.73, 4529
25.02, 101644.47, 0.21,-0.69, 9.69, 4534
25.02, 101644.47, 0.23,-0.57, 9.69, 4539
25.02, 101644.47, 0.19,-0.59, 9.73, 4544
25.02, 101644.47, 0.25,-0.50, 9.79, 4549
25.02, 101644.47, 0.21,-0.48, 9.64, 4554
25.02, 101644.47, 0.21,-0.56, 9.62, 4559
25.02, 101644.14, 0.21,-0.57, 9.58, 4564
25.02, 101644.14, 0.21,-0.63, 9.62, 4569
25.02, 101644.14, 0.19,-0.59, 9.64, 4574
25.02, 101644.14, 0.17,-0.57, 9.67, 4579
25.02, 101644.14, 0.17,-0.56, 9.58, 4584
25.02, 101644.14, 0.25,-0.56, 9.66, 4589
25.02, 101644.14, 0.31,-0.59, 9.71, 4594
25.02, 101642.27, 0.23,-0.57, 9.66, 4599
25.02, 101642.27, 0.25,-0.56, 9.62, 4604
25.02, 101642.27, 0.31,-0.61, 9.64, 4609
25.02, 101642.27, 0.21,-0.61, 9.66, 4614
25.02, 101642.27, 0.29,-0.57, 9.64, 4619
25.02, 101642.27, 0.29,-0.59, 9.69, 4624
25.02, 101642.27, 0.34,-0.61, 9.67, 4629
25.02, 101644.14, 0.21,-0.59, 9.67, 4634
25.02, 101644.14, 0.29,-0.52, 9.75, 4639
25.02, 101644.14, 0.17,-0.50, 9.64, 4644
25.02, 101644.14, 0.23,-0.50, 9.56, 4649
25.02, 101644.14, 0.27,-0.56, 9.64, 4654
25.02, 101644.14, 0.23,-0.57, 9.60, 4659
25.02, 101644.14, 0.19,-0.61, 9.73, 4664
25.02, 101644.31, 0.19,-0.59, 9.73, 4669
25.02, 101644.31, 0.25,-0.61, 9.64, 4674
25.02, 101644.31, 0.25,-0.56, 9.73, 4679
25.02, 101644.31, 0.31,-0.50, 9.67, 4684
25.02, 101644.31, 0.33,-0.57, 9.62, 4689
25.02, 101644.31, 0.27,-0.52, 9.56, 4694
25.02, 101644.31, 0.21,-0.57, 9.66, 4699
25.02, 101644.97, 0.17,-0.56, 9.66, 4704
25.02, 101644.97, 0.21,-0.54, 9.66, 4709
25.02, 101644.97, 0.15,-0.48, 9.60, 4714
25.02, 101644.97, 0.17,-0.52, 9.56, 4719
25.02, 101644.97, 0.21,-0.56, 9.62, 4724
25.02, 101644.97, 0.25,-0.57, 9.52, 4729
25.02, 101644.97, 0.23,-0.57, 9.56, 4734
25.02, 101644.97, 0.17,-0.57, 9.60, 4739
25.02, 101642.60, 0.21,-0.54, 9.67, 4744
25.02, 101642.60, 0.23,-0.54, 9.66, 4749
25.02, 101642.60, 0.21,-0.56, 9.81, 4754
25.02, 101642.60, 0.21,-0.48, 9.77, 4759
25.02, 101642.60, 0.27,-0.54, 9.62, 4764
25.02, 101642.60, 0.23,-0.50, 9.73, 4769
25.02, 101642.60, 0.19,-0.54, 9.60, 4774
25.02, 101644.89, 0.23,-0.59, 9.64, 4779
25.02, 101644.89, 0.17,-0.63, 9.56, 4784
25.02, 101644.89, 0.23,-0.59, 9.58, 4789
25.02, 101644.89, 0.19,-0.69, 9.60, 4794
25.02, 101644.89, 0.25,-0.63, 9.64, 4799
25.02, 101644.89, 0.23,-0.59, 9.64, 4804
25.02, 101644.89, 0.27,-0.54, 9.64, 4809
25.02, 101645.62, 0.27,-0.56, 9.62, 4814
25.02, 101645.62, 0.25,-0.54, 9.58, 4819
25.02, 101645.62, 0.19,-0.57, 9.73, 4824
25.02, 101645.62, 0.23,-0.61, 9.66, 4829
25.02, 101645.62, 0.19,-0.59, 9.73, 4834
25.02, 101645.62, 0.17,-0.56, 9.62, 4839
25.02, 101645.62, 0.23,-0.56, 9.62, 4844
25.02, 101645.80, 0.21,-0.59, 9.56, 4849
25.02, 101645.80, 0.25,-0.54, 9.60, 4854
25.02, 101645.80, 0.29,-0.54, 9.62, 4859
25.02, 101645.80, 0.29,-0.54, 9.60, 4864
25.02, 101645.80, 0.21,-0.61, 9.62, 4869
25.02, 101645.80, 0.29,-0.65, 9.52, 4874
25.02, 101645.80, 0.27,-0.52, 9.56, 4879
25.02, 101644.47, 0.25,-0.50, 9.56, 4884
25.02, 101644.47, 0.23,-0.52, 9.56, 4889
25.02, 101644.47, 0.27,-0.61, 9.64, 4894
25.02, 101644.47, 0.31,-0.57, 9.64, 4899
25.02, 101644.47, 0.17,-0.59, 9.60, 4904
25.02, 101644.47, 0.27,-0.59, 9.69, 4909
25.02, 101644.47, 0.27,-0.61, 9.60, 4914
25.02, 101646.11, 0.34,-0.63, 9.58, 4919
25.02, 101646.11, 0.23,-0.54, 9.66, 4927
25.02, 101646.11, 0.21,-0.52, 9.60, 4931
25.02, 101646.11, 0.23,-0.52, 9.62, 4936
25.02, 101646.11, 0.31,-0.54, 9.64, 4941
25.02, 101646.11, 0.27,-0.56, 9.62, 4946
25.02, 101646.11, 0.19,-0.57, 9.62, 4951
25.02, 101645.95, 0.27,-0.56, 9.62, 4956
25.02, 101645.95, 0.25,-0.61, 9.66, 4961
25.02, 101645.95, 0.19,-0.59, 9.58, 4966
25.02, 101645.95, 0.23,-0.44, 9.58, 4971
25.02, 101645.95, 0.25,-0.46, 9.64, 4976
25.02, 101645.95, 0.25,-0.52, 9.62, 4981
25.02, 101645.95, 0.25,-0.46, 9.75, 4986
25.02, 101646.27, 0.25,-0.50, 9.75, 4991
25.02, 101646.27, 0.36,-0.56, 9.67, 4996
25.02, 101646.27, 0.27,-0.52, 9.62, 5001
25.02, 101646.27, 0.19,-0.57, 9.56, 5006
25.02, 101646.27, 0.21,-0.61, 9.64, 5011
25.02, 101646.27, 0.25,-0.56, 9.64, 5016
25.02, 101646.27, 0.27,-0.52, 9.58, 5021
25.02, 101647.66, 0.27,-0.54, 9.66, 5026
25.02, 101647.66, 0.27,-0.54, 9.69, 5031
25.02, 101647.66, 0.25,-0.54, 9.66, 5036
25.02, 101647.66, 0.19,-0.52, 9.66, 5041
25.02, 101647.66, 0.25,-0.50, 9.66, 5046
25.02, 101647.66, 0.25,-0.57, 9.64, 5051
25.02, 101647.66, 0.25,-0.56, 9.67, 5056
25.02, 101643.63, 0.23,-0.57, 9.58, 5061
25.02, 101643.63, 0.29,-0.63, 9.67, 5066
25.02, 101643.63, 0.27,-0.52, 9.73, 5071
25.02, 101643.63, 0.19,-0.57, 9.69, 5076
25.02, 101643.63, 0.23,-0.56, 9.58, 5081
25.02, 101643.63, 0.25,-0.48, 9.48, 5086
25.02, 101643.63, 0.27,-0.52, 9.54, 5091
25.02, 101645.13, 0.25,-0.59, 9.90, 5096
25.02, 101645.13, 0.27,-0.56, 9.81, 5101
25.02, 101645.13, 0.27,-0.54, 9.73, 5106
25.02, 101645.13, 0.15,-0.57, 9.62, 5111
25.02, 101645.13, 0.19,-0.57, 9.54, 5116
25.02, 101645.13, 0.23,-0.65, 9.66, 5121
25.02, 101645.13, 0.23,-0.63, 9.66, 5126
25.02, 101647.48, 0.23,-0.57, 9.67, 5131
25.02, 101647.48, 0.25,-0.54, 9.66, 5136
25.02, 101647.48, 0.23,-0.54, 9.58, 5141
25.02, 101647.48, 0.23,-0.50, 9.62, 5146
25.02, 101647.48, 0.25,-0.57, 9.58, 5151
25.02, 101647.48, 0.25,-0.61, 9.62, 5156
25.02, 101647.48, 0.19,-0.50, 9.60, 5161
25.02, 101646.94, 0.17,-0.54, 9.67, 5166
25.02, 101646.94, 0.27,-0.56, 9.66, 5171
25.02, 101646.94, 0.25,-0.52, 9.60, 5176
25.02, 101646.94, 0.19,-0.57, 9.60, 5181
25.02, 101646.94, 0.27,-0.54, 9.62, 5186
25.02, 101646.94, 0.33,-0.59, 9.85, 5191
25.02, 101646.94, 0.31,-0.54, 9.39, 5196
25.02, 101646.61, 0.25,-0.52, 9.60, 5201
25.02, 101646.61, 0.27,-0.56, 9.60, 5206
25.02, 101646.61, 0.23,-0.54, 9.56, 5211
25.02, 101646.61, 0.21,-0.44, 9.64, 5216
25.02, 101646.61, 0.15,-0.56, 9.58, 5221
25.02, 101646.61, 0.27,-0.61, 9.62, 5226
25.02, 101646.61, 0.21,-0.56, 9.60, 5231
25.02, 101646.61, 0.19,-0.59, 9.79, 5236
25.02, 101644.62, 0.21,-0.52, 9.71, 5241
25.02, 101644.62, 0.19,-0.54, 9.66, 5246
25.02, 101644.62, 0.23,-0.59, 9.62, 5251
25.02, 101644.62, 0.25,-0.57, 9.62, 5256
25.02, 101644.62, 0.23,-0.56, 9.67, 5261
25.02, 101644.62, 0.15,-0.56, 9.62, 5266
25.02, 101644.62, 0.19,-0.61, 9.66, 5271
25.02, 101644.23, 0.17,-0.52, 9.66, 5276
25.02, 101644.23, 0.23,-0.56, 9.64, 5281
25.02, 101644.23, 0.29,-0.52, 9.66, 5286
25.02, 101644.23, 0.31,-0.50, 9.67, 5291
25.02, 101644.23, 0.23,-0.56, 9.56, 5296
25.02, 101644.23, 0.21,-0.54, 9.66, 5301
25.02, 101644.23, 0.15,-0.54, 9.60, 5306
25.02, 101644.62, 0.21,-0.52, 9.62, 5311
25.02, 101644.62, 0.23,-0.50, 9.67, 5316
25.02, 101644.62, 0.27,-0.54, 9.71, 5321
25.02, 101644.62, 0.25,-0.59, 9.81, 5326
25.02, 101644.62, 0.21,-0.57, 9.67, 5331
25.02, 101644.62, 0.25,-0.59, 9.67, 5336
25.02, 101644.62, 0.23,-0.52, 9.58, 5341
25.02, 101642.81, 0.23,-0.61, 9.58, 5346
25.02, 101642.81, 0.25,-0.52, 9.66, 5351
25.02, 101642.81, 0.23,-0.52, 9.58, 5356
25.02, 101642.81, 0.23,-0.52, 9.64, 5361
25.02, 101642.81, 0.19,-0.56, 9.64, 5366
25.02, 101642.81, 0.17,-0.59, 9.66, 5371
25.02, 101642.81, 0.23,-0.56, 9.66, 5376
25.02, 101641.43, 0.23,-0.59, 9.66, 5381
25.02, 101641.43, 0.29,-0.56, 9.67, 5386
25.02, 101641.43, 0.27,-0.57, 9.64, 5391
25.02, 101641.43, 0.27,-0.57, 9.66, 5396
25.02, 101641.43, 0.27,-0.56, 9.64, 5401
25.02, 101641.43, 0.23,-0.52, 9.58, 5406
25.02, 101641.43, 0.11,-0.59, 9.69, 5411
25.02, 101643.63, 0.23,-0.52, 9.67, 5416
25.02, 101643.63, 0.29,-0.52, 9.67, 5421
25.02, 101643.63, 0.27,-0.63, 9.60, 5429
25.02, 101643.63, 0.23,-0.54, 9.60, 5433
25.02, 101643.63, 0.27,-0.61, 9.64, 5438
25.02, 101643.63, 0.29,-0.57, 9.71, 5443
25.02, 101643.63, 0.23,-0.56, 9.60, 5448
25.02, 101643.47, 0.15,-0.61, 9.64, 5453
25.02, 101643.47, 0.17,-0.59, 9.67, 5458
25.02, 101643.47, 0.21,-0.61, 9.64, 5463
25.02, 101643.47, 0.25,-0.63, 9.62, 5468
25.02, 101643.47, 0.27,-0.57, 9.66, 5473
25.02, 101643.47, 0.25,-0.54, 9.66, 5478
25.02, 101643.47, 0.23,-0.56, 9.67, 5483
25.02, 101643.03, 0.19,-0.57, 9.60, 5488
25.02, 101643.03, 0.21,-0.57, 9.69, 5493
25.02, 101643.03, 0.23,-0.59, 9.62, 5498
25.02, 101643.03, 0.29,-0.44, 9.67, 5503
25.02, 101643.03, 0.29,-0.57, 9.64, 5508
25.02, 101643.03, 0.29,-0.54, 9.60, 5513
25.02, 101643.03, 0.31,-0.57, 9.66, 5518
25.02, 101641.67, 0.23,-0.59, 9.71, 5523
25.02, 101641.67, 0.23,-0.57, 9.71, 5528
25.02, 101641.67, 0.19,-0.61, 9.67, 5533
25.02, 101641.67, 0.27,-0.56, 9.64, 5538
25.02, 101641.67, 0.29,-0.59, 9.62, 5543
25.02, 101641.67, 0.25,-0.63, 9.64, 5548
25.02, 101641.67, 0.29,-0.61, 9.66, 5553
25.02, 101643.03, 0.23,-0.50, 9.62, 5558
25.02, 101643.03, 0.21,-0.59, 9.67, 5563
25.02, 101643.03, 0.19,-0.57, 9.62, 5568
25.02, 101643.03, 0.19,-0.59, 9.62, 5573
25.02, 101643.03, 0.19,-0.61, 9.66, 5578
25.02, 101643.03, 0.17,-0.56, 9.62, 5583
25.02, 101643.03, 0.21,-0.56, 9.60, 5588
25.02, 101644.78, 0.27,-0.63, 9.66, 5593
25.02, 101644.78, 0.19,-0.61, 9.62, 5598
25.02, 101644.78, 0.19,-0.61, 9.67, 5603
25.02, 101644.78, 0.23,-0.56, 9.69, 5608
25.02, 101644.78, 0.11,-0.61, 9.64, 5613
25.02, 101644.78, 0.17,-0.59, 9.71, 5618
25.02, 101644.78, 0.21,-0.61, 9.56, 5623
25.02, 101641.83, 0.31,-0.56, 9.54, 5628
25.02, 101641.83, 0.31,-0.57, 9.64, 5633
25.02, 101641.83, 0.23,-0.69, 9.56, 5638
25.02, 101641.83, 0.13,-0.61, 9.60, 5643
25.02, 101641.83, 0.19,-0.56, 9.60, 5648
25.02, 101641.83, 0.17,-0.57, 9.67, 5653
25.02, 101641.83, 0.17,-0.57, 9.66, 5658
25.02, 101640.28, 0.27,-0.54, 9.66, 5663
25.02, 101640.28, 0.23,-0.63, 9.60, 5668
25.02, 101640.28, 0.27,-0.61, 9.62, 5673
25.02, 101640.28, 0.25,-0.57, 9.60, 5678
25.02, 101640.28, 0.23,-0.57, 9.62, 5683
25.02, 101640.28, 0.25,-0.57, 9.64, 5688
25.02, 101640.28, 0.21,-0.57, 9.67, 5693
25.02, 101642.64, 0.21,-0.61, 9.60, 5698
25.02, 101642.64, 0.25,-0.59, 9.67, 5703
25.02, 101642.64, 0.27,-0.57, 9.64, 5708
25.02, 101642.64, 0.23,-0.56, 9.56, 5713
25.02, 101642.64, 0.23,-0.57, 9.60, 5718
25.02, 101642.64, 0.31,-0.61, 9.58, 5723
25.02, 101642.64, 0.27,-0.59, 9.46, 5728
25.02, 101643.80, 0.25,-0.63, 9.56, 5733
25.02, 101643.80, 0.21,-0.61, 9.67, 5738
25.02, 101643.80, 0.29,-0.54, 9.58, 5743
25.02, 101643.80, 0.27,-0.57, 9.58, 5748
25.02, 101643.80, 0.17,-0.67, 9.58, 5753
25.02, 101643.80, 0.19,-0.56, 9.69, 5758
25.02, 101643.80, 0.23,-0.56, 9.69, 5763
25.02, 101643.80, 0.27,-0.61, 9.58, 5768
25.02, 101642.64, 0.19,-0.61, 9.60, 5773
25.02, 101642.64, 0.21,-0.56, 9.69, 5778
25.02, 101642.64, 0.21,-0.54, 9.62, 5783
25.02, 101642.64, 0.27,-0.56, 9.62, 5788
25.02, 101642.64, 0.17,-0.59, 9.69, 5793
25.02, 101642.64, 0.25,-0.59, 9.64, 5798
25.02, 101642.64, 0.17,-0.57, 9.60, 5803
25.02, 101643.47, 0.23,-0.59, 9.62, 5808
25.02, 101643.47, 0.25,-0.57, 9.66, 5813
25.02, 101643.47, 0.27,-0.56, 9.60, 5818
25.02, 101643.47, 0.29,-0.56, 9.64, 5823
25.02, 101643.47, 0.27,-0.50, 9.62, 5828
25.02, 101643.47, 0.17,-0.52, 9.62, 5833
25.02, 101643.47, 0.25,-0.56, 9.71, 5838
25.02, 101643.63, 0.19,-0.56, 9.66, 5843
25.02, 101643.63, 0.33,-0.57, 9.66, 5848
25.02, 101643.63, 0.23,-0.67, 9.67, 5853
25.02, 101643.63, 0.17,-0.57, 9.54, 5858
25.02, 101643.63, 0.25,-0.57, 9.67, 5863
25.02, 101643.63, 0.27,-0.56, 9.69, 5868
25.02, 101643.63, 0.31,-0.52, 9.66, 5873
25.02, 101643.80, 0.17,-0.61, 9.56, 5878
25.02, 101643.80, 0.27,-0.56, 9.62, 5883
25.02, 101643.80, 0.31,-0.57, 9.62, 5888
25.02, 101643.80, 0.25,-0.63, 9.67, 5893
25.02, 101643.80, 0.25,-0.57, 9.66, 5898
25.02, 101643.80, 0.21,-0.54, 9.62, 5903
25.02, 101643.80, 0.25,-0.56, 9.62, 5908
25.02, 101641.43, 0.23,-0.57, 9.60, 5913
25.02, 101641.43, 0.25,-0.50, 9.64, 5918
25.02, 101641.43, 0.17,-0.63, 9.64, 5923
25.02, 101641.43, 0.21,-0.57, 9.60, 5931
25.02, 101641.43, 0.17,-0.59, 9.67, 5935
25.02, 101641.43, 0.17,-0.56, 9.73, 5940
25.02, 101641.43, 0.27,-0.59, 9.58, 5945
25.02, 101644.46, 0.21,-0.52, 9.73, 5950
25.02, 101644.46, 0.25,-0.50, 9.67, 5955
25.02, 101644.46, 0.25,-0.56, 9.64, 5960
25.02, 101644.46, 0.27,-0.59, 9.67, 5965
25.02, 101644.46, 0.27,-0.59, 9.67, 5970
25.02, 101644.46, 0.25,-0.57, 9.71, 5975
25.02, 101644.46, 0.17,-0.59, 9.71, 5980
25.02, 101639.28, 0.21,-0.57, 9.66, 5985
25.02, 101639.28, 0.27,-0.57, 9.66, 5990
25.02, 101639.28, 0.21,-0.61, 9.52, 5995
25.02, 101639.28, 0.23,-0.57, 9.62, 6000
25.02, 101639.28, 0.27,-0.50, 9.66, 6005
25.02, 101639.28, 0.27,-0.56, 9.60, 6010
25.02, 101639.28, 0.27,-0.56, 9.67, 6015
25.02, 101641.59, 0.21,-0.56, 9.69, 6020
25.02, 101641.59, 0.15,-0.57, 9.58, 6025
25.02, 101641.59, 0.15,-0.50, 9.62, 6030
25.02, 101641.59, 0.19,-0.63, 9.60, 6035
25.02, 101641.59, 0.25,-0.57, 9.60, 6040
25.02, 101641.59, 0.29,-0.52, 9.60, 6045
25.02, 101641.59, 0.23,-0.52, 9.52, 6050
25.02, 101642.97, 0.27,-0.46, 9.67, 6055
25.02, 101642.97, 0.21,-0.56, 9.73, 6060
25.02, 101642.97, 0.25,-0.50, 9.62, 6065
25.02, 101642.97, 0.21,-0.54, 9.62, 6070
25.02, 101642.97, 0.19,-0.56, 9.66, 6075
25.02, 101642.97, 0.25,-0.56, 9.66, 6080
25.02, 101642.97, 0.19,-0.50, 9.66, 6085
25.02, 101642.97, 0.25,-0.56, 9.62, 6090
25.02, 101642.97, 0.25,-0.50, 9.64, 6095
25.02, 101642.97, 0.25,-0.56, 9.62, 6100
25.02, 101642.97, 0.27,-0.61, 9.62, 6105
25.02, 101642.97, 0.23,-0.59, 9.64, 6110
25.02, 101642.97, 0.29,-0.57, 9.62, 6115
25.02, 101642.97, 0.25,-0.59, 9.62, 6120
25.02, 101642.81, 0.25,-0.56, 9.64, 6125
25.02, 101642.81, 0.25,-0.56, 9.58, 6130
25.02, 101642.81, 0.27,-0.59, 9.64, 6135
25.02, 101642.81, 0.23,-0.52, 9.67, 6140
25.02, 101642.81, 0.15,-0.57, 9.71, 6145
25.02, 101642.81, 0.15,-0.57, 9.85, 6150
25.02, 101642.81, 0.27,-0.63, 9.75, 6155
25.02, 101639.95, 0.29,-0.61, 9.45, 6160
25.02, 101639.95, 0.17,-0.61, 9.67, 6165
25.02, 101639.95, 0.21,-0.59, 9.62, 6170
25.02, 101639.95, 0.25,-0.52, 9.64, 6175
25.02, 101639.95, 0.25,-0.54, 9.71, 6180
25.02, 101639.95, 0.21,-0.56, 9.69, 6185
25.02, 101639.95, 0.27,-0.59, 9.64, 6190
25.02, 101641.98, 0.23,-0.56, 9.58, 6195
25.02, 101641.98, 0.19,-0.52, 9.66, 6200
25.02, 101641.98, 0.19,-0.57, 9.64, 6205
25.02, 101641.98, 0.21,-0.63, 9.67, 6210
25.02, 101641.98, 0.25,-0.57, 9.64, 6215
25.02, 101641.98, 0.23,-0.56, 9.66, 6220
25.02, 101641.98, 0.27,-0.57, 9.60, 6225
25.02, 101642.31, 0.27,-0.56, 9.64, 6230
25.02, 101642.31, 0.27,-0.56, 9.64, 6235
25.02, 101642.31, 0.33,-0.56, 9.66, 6240
25.02, 101642.31, 0.25,-0.52, 9.56, 6245
25.02, 101642.31, 0.27,-0.56, 9.52, 6250
25.02, 101642.31, 0.29,-0.54, 9.69, 6255
25.02, 101642.31, 0.15,-0.63, 9.64, 6260
25.02, 101642.31, 0.21,-0.56, 9.75, 6265
25.02, 101641.59, 0.23,-0.57, 9.62, 6270
25.02, 101641.59, 0.29,-0.52, 9.56, 6275
25.02, 101641.59, 0.21,-0.50, 9.56, 6280
25.02, 101641.59, 0.23,-0.59, 9.58, 6285
25.02, 101641.59, 0.23,-0.56, 9.60, 6290
25.02, 101641.59, 0.21,-0.54, 9.48, 6295
25.02, 101641.59, 0.17,-0.54, 9.58, 6300
25.02, 101643.14, 0.21,-0.54, 9.66, 6305
25.02, 101643.14, 0.23,-0.52, 9.67, 6310
25.02, 101643.14, 0.19,-0.57, 9.67, 6315
25.02, 101643.14, 0.21,-0.57, 9.66, 6320
25.02, 101643.14, 0.23,-0.61, 9.66, 6325
25.02, 101643.14, 0.23,-0.56, 9.60, 6330
25.02, 101643.14, 0.27,-0.54, 9.58, 6335
25.02, 101645.73, 0.25,-0.54, 9.62, 6340
25.02, 101645.73, 0.27,-0.54, 9.60, 6345
25.02, 101645.73, 0.31,-0.61, 9.62, 6350
25.02, 101645.73, 0.27,-0.57, 9.62, 6355
25.02, 101645.73, 0.25,-0.56, 9.71, 6360
25.02, 101645.73, 0.23,-0.57, 9.66, 6365
25.02, 101645.73, 0.21,-0.61, 9.69, 6370
25.02, 101642.97, 0.19,-0.61, 9.60, 6375
25.02, 101642.97, 0.19,-0.61, 9.60, 6380
25.02, 101642.97, 0.25,-0.61, 9.60, 6385
25.02, 101642.97, 0.23,-0.61, 9.58, 6390
25.02, 101642.97, 0.27,-0.56, 9.62, 6395
25.02, 101642.97, 0.19,-0.52, 9.69, 6400
25.02, 101642.97, 0.27,-0.56, 9.62, 6405
25.02, 101643.69, 0.27,-0.50, 9.60, 6410
25.02, 101643.69, 0.27,-0.52, 9.62, 6415
25.02, 101643.69, 0.25,-0.65, 9.60, 6420
25.02, 101643.69, 0.23,-0.61, 9.56, 6425
25.02, 101643.69, 0.25,-0.52, 9.64, 6432
25.02, 101643.69, 0.17,-0.56, 9.50, 6437
25.02, 101643.69, 0.25,-0.54, 9.58, 6442
25.02, 101642.31, 0.21,-0.52, 9.64, 6447
25.02, 101642.31, 0.21,-0.61, 9.58, 6452
25.02, 101642.31, 0.27,-0.54, 9.73, 6457
25.02, 101642.31, 0.21,-0.52, 9.56, 6462
25.02, 101642.31, 0.19,-0.57, 9.52, 6467
25.02, 101642.31, 0.29,-0.54, 9.62, 6472
25.02, 101642.31, 0.21,-0.54, 9.77, 6477
25.02, 101643.03, 0.23,-0.54, 9.71, 6482
25.02, 101643.03, 0.25,-0.63, 9.54, 6487
25.02, 101643.03, 0.23,-0.54, 9.64, 6492
25.02, 101643.03, 0.25,-0.54, 9.58, 6497
25.02, 101643.03, 0.21,-0.54, 9.64, 6502
25.02, 101643.03, 0.23,-0.63, 9.66, 6507
25.02, 101643.03, 0.17,-0.57, 9.66, 6512
25.02, 101644.08, 0.23,-0.65, 9.71, 6517
25.02, 101644.08, 0.27,-0.54, 9.66, 6522
25.02, 101644.08, 0.23,-0.56, 9.62, 6527
25.02, 101644.08, 0.19,-0.56, 9.62, 6532
25.02, 101644.08, 0.19,-0.54, 9.60, 6537
25.02, 101644.08, 0.17,-0.57, 9.69, 6542
25.02, 101644.08, 0.21,-0.59, 9.67, 6547
25.02, 101641.88, 0.23,-0.61, 9.73, 6552
25.02, 101641.88, 0.21,-0.57, 9.64, 6557
25.02, 101641.88, 0.27,-0.57, 9.60, 6562
25.02, 101641.88, 0.21,-0.65, 9.64, 6567
25.02, 101641.88, 0.13,-0.57, 9.60, 6572
25.02, 101641.88, 0.27,-0.61, 9.50, 6577
25.02, 101641.88, 0.23,-0.59, 9.43, 6582
25.02, 101642.86, 0.25,-0.56, 9.60, 6587
25.02, 101642.86, 0.27,-0.57, 9.71, 6592
25.02, 101642.86, 0.17,-0.57, 9.71, 6597
25.02, 101642.86, 0.23,-0.57, 9.77, 6602
25.02, 101642.86, 0.13,-0.63, 9.66, 6607
25.02, 101642.86, 0.21,-0.57, 9.66, 6612
25.02, 101642.86, 0.25,-0.57, 9.60, 6617
25.02, 101643.58, 0.23,-0.54, 9.60, 6622
25.02, 101643.58, 0.23,-0.59, 9.54, 6627
25.02, 101643.58, 0.25,-0.59, 9.54, 6632
25.02, 101643.58, 0.27,-0.57, 9.69, 6637
25.02, 101643.58, 0.19,-0.61, 9.64, 6642
25.02, 101643.58, 0.27,-0.57, 9.60, 6647
25.02, 101643.58, 0.23,-0.54, 9.62, 6652
25.02, 101642.97, 0.19,-0.57, 9.60, 6657
25.02, 101642.97, 0.27,-0.61, 9.54, 6662
25.02, 101642.97, 0.21,-0.61, 9.58, 6667
25.02, 101642.97, 0.25,-0.56, 9.69, 6672
25.02, 101642.97, 0.13,-0.59, 9.58, 6677
25.02, 101642.97, 0.17,-0.50, 9.46, 6682
25.02, 101642.97, 0.15,-0.50, 9.64, 6687
25.02, 101641.09, 0.27,-0.59, 9.64, 6692
25.02, 101641.09, 0.27,-0.57, 9.67, 6697
25.02, 101641.09, 0.29,-0.54, 9.73, 6702
25.02, 101641.09, 0.31,-0.52, 9.69, 6707
25.02, 101641.09, 0.25,-0.54, 9.66, 6712
25.02, 101641.09, 0.25,-0.57, 9.66, 6717
25.02, 101641.09, 0.21,-0.57, 9.60, 6722
25.02, 101645.40, 0.27,-0.65, 9.52, 6727
25.02, 101645.40, 0.17,-0.56, 9.58, 6732
25.02, 101645.40, 0.19,-0.54, 9.58, 6737
25.02, 101645.40, 0.21,-0.56, 9.58, 6742
25.02, 101645.40, 0.25,-0.59, 9.69, 6747
25.02, 101645.40, 0.29,-0.65, 9.62, 6752
25.02, 101645.40, 0.27,-0.63, 9.64, 6757
25.02, 101641.16, 0.21,-0.59, 9.64, 6762
25.02, 101641.16, 0.27,-0.54, 9.69, 6767
25.02, 101641.16, 0.29,-0.59, 9.66, 6772
25.02, 101641.16, 0.25,-0.57, 9.66, 6777
25.02, 101641.16, 0.29,-0.59, 9.60, 6782
25.02, 101641.16, 0.23,-0.57, 9.58, 6787
25.02, 101641.16, 0.33,-0.57, 9.62, 6792
25.02, 101641.16, 0.25,-0.59, 9.67, 6797
25.02, 101642.81, 0.25,-0.56, 9.83, 6802
25.02, 101642.81, 0.23,-0.56, 9.62, 6807
25.02, 101642.81, 0.23,-0.56, 9.67, 6812
25.02, 101642.81, 0.27,-0.57, 9.64, 6817
25.02, 101642.81, 0.17,-0.59, 9.60, 6822
25.02, 101642.81, 0.19,-0.57, 9.56, 6827
25.02, 101642.81, 0.17,-0.50, 9.64, 6832
25.02, 101642.86, 0.25,-0.50, 9.60, 6837
25.02, 101642.86, 0.27,-0.52, 9.50, 6842
25.02, 101642.86, 0.23,-0.56, 9.58, 6847
25.02, 101642.86, 0.23,-0.61, 9.69, 6852
25.02, 101642.86, 0.17,-0.59, 9.67, 6857
25.02, 101642.86, 0.29,-0.57, 9.67, 6862
25.02, 101642.86, 0.21,-0.61, 9.67, 6867
25.02, 101644.08, 0.23,-0.57, 9.62, 6872
25.02, 101644.08, 0.21,-0.56, 9.62, 6877
25.02, 101644.08, 0.21,-0.52, 9.58, 6882
25.02, 101644.08, 0.21,-0.54, 9.60, 6887
25.02, 101644.08, 0.19,-0.56, 9.56, 6892
25.02, 101644.08, 0.23,-0.59, 9.62, 6897
25.02, 101644.08, 0.21,-0.56, 9.64, 6902
25.02, 101643.09, 0.21,-0.54, 9.69, 6907
25.02, 101643.09, 0.21,-0.57, 9.60, 6912
25.02, 101643.09, 0.19,-0.52, 9.69, 6917
25.02, 101643.09, 0.23,-0.54, 9.45, 6922
25.02, 101643.09, 0.17,-0.56, 9.62, 6927
25.02, 101643.09, 0.21,-0.59, 9.64, 6935
25.02, 101643.09, 0.19,-0.56, 9.66, 6939
25.02, 101640.61, 0.19,-0.56, 9.69, 6944
25.02, 101640.61, 0.21,-0.65, 9.64, 6949
25.02, 101640.61, 0.23,-0.63, 9.66, 6954
25.02, 101640.61, 0.23,-0.57, 9.64, 6959
25.02, 101640.61, 0.23,-0.52, 9.60, 6964
25.02, 101640.61, 0.23,-0.52, 9.64, 6969
25.02, 101640.61, 0.23,-0.48, 9.60, 6974
25.02, 101642.27, 0.23,-0.57, 9.64, 6979
25.02, 101642.27, 0.31,-0.59, 9.64, 6984
25.02, 101642.27, 0.23,-0.61, 9.66, 6989
25.02, 101642.27, 0.27,-0.57, 9.66, 6994
25.02, 101642.27, 0.31,-0.63, 9.79, 6999
25.02, 101642.27, 0.29,-0.63, 9.73, 7004
25.02, 101642.27, 0.19,-0.54, 9.62, 7009
25.02, 101643.58, 0.23,-0.56, 9.62, 7014
25.02, 101643.58, 0.27,-0.61, 9.64, 7019
25.02, 101643.58, 0.33,-0.61, 9.54, 7024
25.02, 101643.58, 0.27,-0.61, 9.60, 7029
25.02, 101643.58, 0.23,-0.56, 9.58, 7034
25.02, 101643.58, 0.33,-0.59, 9.58, 7039
25.02, 101643.58, 0.29,-0.57, 9.67, 7044
25.02, 101645.22, 0.34,-0.56, 9.66, 7049
25.02, 101645.22, 0.27,-0.57, 9.66, 7054
25.02, 101645.22, 0.31,-0.57, 9.58, 7059
25.02, 101645.22, 0.25,-0.56, 9.62, 7064
25.02, 101645.22, 0.25,-0.50, 9.67, 7069
25.02, 101645.22, 0.27,-0.54, 9.67, 7074
25.02, 101645.22, 0.27,-0.56, 9.66, 7079
25.02, 101644.72, 0.25,-0.57, 9.58, 7084
25.02, 101644.72, 0.23,-0.57, 9.62, 7089
25.02, 101644.72, 0.27,-0.56, 9.64, 7094
25.02, 101644.72, 0.19,-0.56, 9.58, 7099
25.02, 101644.72, 0.29,-0.52, 9.73, 7104
25.02, 101644.72, 0.23,-0.57, 9.66, 7109
25.02, 101644.72, 0.21,-0.57, 9.58, 7114
25.02, 101644.08, 0.17,-0.54, 9.67, 7119
25.02, 101644.08, 0.23,-0.56, 9.64, 7124
25.02, 101644.08, 0.23,-0.56, 9.69, 7129
25.02, 101644.08, 0.19,-0.56, 9.67, 7134
25.02, 101644.08, 0.19,-0.61, 9.77, 7139
25.02, 101644.08, 0.23,-0.50, 9.73, 7144
25.02, 101644.08, 0.21,-0.59, 9.67, 7149
25.02, 101644.66, 0.19,-0.59, 9.62, 7154
25.02, 101644.66, 0.25,-0.59, 9.58, 7159
25.02, 101644.66, 0.27,-0.61, 9.56, 7164
25.02, 101644.66, 0.31,-0.57, 9.52, 7169
25.02, 101644.66, 0.25,-0.61, 9.58, 7174
25.02, 101644.66, 0.23,-0.56, 9.54, 7179
25.02, 101644.66, 0.21,-0.52, 9.54, 7184
25.02, 101640.39, 0.21,-0.63, 9.62, 7189
25.02, 101640.39, 0.29,-0.59, 9.66, 7194
25.02, 101640.39, 0.23,-0.52, 9.60, 7199
25.02, 101640.39, 0.25,-0.54, 9.62, 7204
25.02, 101640.39, 0.25,-0.61, 9.64, 7209
25.02, 101640.39, 0.17,-0.56, 9.67, 7214
25.02, 101640.39, 0.17,-0.54, 9.62, 7219
25.02, 101642.76, 0.17,-0.56, 9.66, 7224
25.02, 101642.76, 0.23,-0.56, 9.75, 7229
25.02, 101642.76, 0.27,-0.54, 9.64, 7234
25.02, 101642.76, 0.29,-0.63, 9.50, 7239
25.02, 101642.76, 0.33,-0.63, 9.54, 7244
25.02, 101642.76, 0.25,-0.59, 9.60, 7249
25.02, 101642.76, 0.29,-0.67, 9.83, 7254
25.02, 101645.38, 0.27,-0.59, 9.64, 7259
25.02, 101645.38, 0.17,-0.56, 9.60, 7264
25.02, 101645.38, 0.23,-0.59, 9.62, 7269
25.02, 101645.38, 0.29,-0.57, 9.54, 7274
25.02, 101645.38, 0.33,-0.57, 9.64, 7279
25.02, 101645.38, 0.31,-0.54, 9.69, 7284
25.02, 101645.38, 0.25,-0.57, 9.64, 7289
25.02, 101645.38, 0.27,-0.54, 9.66, 7294
25.02, 101645.16, 0.19,-0.57, 9.64, 7299
25.02, 101645.16, 0.21,-0.57, 9.62, 7304
25.02, 101645.16, 0.23,-0.59, 9.60, 7309
25.02, 101645.16, 0.29,-0.56, 9.62, 7314
25.02, 101645.16, 0.25,-0.54, 9.66, 7319
25.02, 101645.16, 0.21,-0.54, 9.67, 7324
25.02, 101645.16, 0.31,-0.57, 9.64, 7329
25.02, 101643.25, 0.25,-0.56, 9.71, 7334
25.02, 101643.25, 0.27,-0.59, 9.69, 7339
25.02, 101643.25, 0.19,-0.48, 9.66, 7344
25.02, 101643.25, 0.27,-0.46, 9.71, 7349
25.02, 101643.25, 0.27,-0.67, 9.75, 7354
25.02, 101643.25, 0.21,-0.52, 9.67, 7359
25.02, 101643.25, 0.23,-0.44, 9.60, 7364
25.02, 101639.17, 0.29,-0.54, 9.56, 7369
25.02, 101639.17, 0.19,-0.59, 9.66, 7374
25.02, 101639.17, 0.17,-0.54, 9.77, 7379
25.02, 101639.17, 0.21,-0.57, 9.75, 7384
25.02, 101639.17, 0.25,-0.52, 9.69, 7389
25.02, 101639.17, 0.23,-0.48, 9.62, 7394
25.02, 101639.17, 0.19,-0.50, 9.66, 7399
25.02, 101643.02, 0.21,-0.52, 9.58, 7404
25.02, 101643.02, 0.15,-0.61, 9.64, 7409
25.02, 101643.02, 0.29,-0.56, 9.66, 7414
25.02, 101643.02, 0.34,-0.54, 9.67, 7419
25.02, 101643.02, 0.33,-0.59, 9.67, 7424
25.02, 101643.02, 0.21,-0.59, 9.62, 7429
25.02, 101642.92, 0.19,-0.42, 9.62, 7437
25.02, 101642.92, 0.29,-0.54, 9.60, 7441
25.02, 101642.92, 0.29,-0.50, 9.64, 7446
25.02, 101642.92, 0.21,-0.50, 9.73, 7451
25.02, 101642.92, 0.36,-0.56, 9.73, 7456
25.02, 101642.92, 0.23,-0.56, 9.66, 7461
25.02, 101642.92, 0.21,-0.48, 9.66, 7466
25.02, 101642.92, 0.27,-0.52, 9.56, 7471
25.02, 101641.77, 0.31,-0.57, 9.56, 7476
25.02, 101641.77, 0.25,-0.57, 9.58, 7481
25.02, 101641.77, 0.29,-0.59, 9.60, 7486
25.02, 101641.77, 0.17,-0.46, 9.64, 7491
25.02, 101641.77, 0.23,-0.54, 9.64, 7496
25.02, 101641.77, 0.21,-0.65, 9.60, 7501
25.02, 101641.77, 0.27,-0.57, 9.62, 7506
25.02, 101640.88, 0.31,-0.54, 9.60, 7511
25.02, 101640.88, 0.23,-0.50, 9.60, 7516
25.02, 101640.88, 0.23,-0.56, 9.58, 7521
25.02, 101640.88, 0.25,-0.52, 9.64, 7526
25.02, 101640.88, 0.25,-0.54, 9.64, 7531
25.02, 101640.88, 0.23,-0.56, 9.64, 7536
25.02, 101640.88, 0.23,-0.50, 9.67, 7541
25.02, 101643.58, 0.21,-0.48, 9.66, 7546
25.02, 101643.58, 0.25,-0.52, 9.67, 7551
25.02, 101643.58, 0.29,-0.56, 9.69, 7556
25.02, 101643.58, 0.25,-0.52, 9.77, 7561
25.02, 101643.58, 0.25,-0.54, 9.56, 7566
25.02, 101643.58, 0.27,-0.52, 9.45, 7571
25.02, 101643.58, 0.29,-0.52, 9.46, 7576
25.02, 101641.38, 0.29,-0.54, 9.62, 7581
25.02, 101641.38, 0.27,-0.57, 9.73, 7586
25.02, 101641.38, 0.27,-0.63, 9.71, 7591
25.02, 101641.38, 0.19,-0.57, 9.60, 7596
25.02, 101641.38, 0.23,-0.61, 9.69, 7601
25.02, 101641.38, 0.23,-0.59, 9.64, 7606
25.02, 101641.38, 0.25,-0.52, 9.62, 7611
25.02, 101643.25, 0.23,-0.52, 9.60, 7616
25.02, 101643.25, 0.23,-0.54, 9.64, 7621
25.02, 101643.25, 0.29,-0.54, 9.64, 7626
25.02, 101643.25, 0.27,-0.56, 9.60, 7631
25.02, 101643.25, 0.23,-0.52, 9.58, 7636
25.02, 101643.25, 0.27,-0.57, 9.64, 7641
25.02, 101643.25, 0.21,-0.54, 9.64, 7646
25.02, 101642.09, 0.23,-0.59, 9.69, 7651
25.02, 101642.09, 0.17,-0.63, 9.67, 7656
25.02, 101642.09, 0.19,-0.56, 9.60, 7661
25.02, 101642.09, 0.19,-0.56, 9.75, 7666
25.02, 101642.09, 0.23,-0.63, 9.94, 7671
25.02, 101642.09, 0.21,-0.54, 9.64, 7676
25.02, 101642.09, 0.17,-0.67, 9.52, 7681
25.02, 101641.55, 0.25,-0.61, 9.73, 7686
25.02, 101641.55, 0.25,-0.57, 9.52, 7691
25.02, 101641.55, 0.29,-0.56, 9.50, 7696
25.02, 101641.55, 0.25,-0.56, 9.52, 7701
25.02, 101641.55, 0.27,-0.48, 9.58, 7706
25.02, 101641.55, 0.29,-0.65, 9.67, 7711
25.02, 101641.55, 0.29,-0.61, 9.69, 7716
25.02, 101644.58, 0.29,-0.59, 9.62, 7721
25.02, 101644.58, 0.27,-0.57, 9.66, 7726
25.02, 101644.58, 0.27,-0.61, 9.60, 7731
25.02, 101644.58, 0.23,-0.52, 9.67, 7736
25.02, 101644.58, 0.19,-0.52, 9.66, 7741
25.02, 101644.58, 0.23,-0.61, 9.64, 7746
25.02, 101644.58, 0.21,-0.59, 9.66, 7751
25.02, 101644.73, 0.21,-0.56, 9.66, 7756
25.02, 101644.73, 0.19,-0.56, 9.64, 7761
25.02, 101644.73, 0.15,-0.52, 9.64, 7766
25.02, 101644.73, 0.23,-0.59, 9.66, 7771
25.02, 101644.73, 0.17,-0.61, 9.62, 7776
25.02, 101644.73, 0.23,-0.63, 9.48, 7781
25.02, 101644.73, 0.29,-0.54, 9.50, 7786
25.02, 101642.92, 0.29,-0.52, 9.62, 7791
25.02, 101642.92, 0.25,-0.50, 9.64, 7796
25.02, 101642.92, 0.25,-0.54, 9.60, 7801
25.02, 101642.92, 0.23,-0.54, 9.58, 7806
25.02, 101642.92, 0.25,-0.46, 9.56, 7811
25.02, 101642.92, 0.33,-0.59, 9.64, 7816
25.02, 101642.92, 0.23,-0.50, 9.54, 7821
25.02, 101642.92, 0.25,-0.57, 9.52, 7826
25.02, 101644.66, 0.27,-0.56, 9.62, 7831
25.02, 101644.66, 0.25,-0.52, 9.67, 7836
25.02, 101644.66, 0.25,-0.57, 9.71, 7841
25.02, 101644.66, 0.19,-0.56, 9.67, 7846
25.02, 101644.66, 0.17,-0.54, 9.67, 7851
25.02, 101644.66, 0.19,-0.56, 9.66, 7856
25.02, 101644.66, 0.21,-0.54, 9.66, 7861
25.02, 101646.48, 0.23,-0.56, 9.66, 7866
25.02, 101646.48, 0.27,-0.50, 9.62, 7871
25.02, 101646.48, 0.23,-0.50, 9.67, 7876
25.02, 101646.48, 0.27,-0.56, 9.64, 7881
25.02, 101646.48, 0.13,-0.59, 9.67, 7886
25.02, 101646.48, 0.15,-0.50, 9.66, 7891
25.02, 101646.48, 0.19,-0.52, 9.69, 7896
25.02, 101643.36, 0.15,-0.56, 9.67, 7901
25.02, 101643.36, 0.17,-0.54, 9.50, 7906
25.02, 101643.36, 0.13,-0.63, 9.64, 7911
25.02, 101643.36, 0.23,-0.61, 9.69, 7916
25.02, 101643.36, 0.21,-0.65, 9.87, 7921
25.02, 101643.36, 0.19,-0.57, 9.69, 7926
25.02, 101643.36, 0.17,-0.63, 9.73, 7931
25.02, 101642.20, 0.21,-0.59, 9.69, 7939
25.02, 101642.20, 0.23,-0.48, 9.64, 7943
25.02, 101642.20, 0.25,-0.52, 9.62, 7948
25.02, 101642.20, 0.21,-0.50, 9.66, 7953
25.02, 101642.20, 0.25,-0.52, 9.66, 7958
25.02, 101642.20, 0.21,-0.56, 9.67, 7963
25.02, 101642.20, 0.31,-0.57, 9.66, 7968
25.02, 101643.58, 0.27,-0.56, 9.64, 7973
25.02, 101643.58, 0.27,-0.57, 9.64, 7978
25.02, 101643.58, 0.33,-0.52, 9.73, 7983
25.02, 101643.58, 0.33,-0.57, 9.75, 7988
25.02, 101643.58, 0.31,-0.59, 9.46, 7993
25.02, 101643.58, 0.25,-0.69, 9.60, 7998
25.02, 101643.58, 0.27,-0.63, 9.52, 8003
25.02, 101644.66, 0.19,-0.57, 9.62, 8008
25.02, 101644.66, 0.25,-0.54, 9.60, 8013
25.02, 101644.66, 0.15,-0.61, 9.60, 8018
25.02, 101644.66, 0.13,-0.63, 9.77, 8023
25.02, 101644.66, 0.21,-0.69, 9.64, 8028
25.02, 101644.66, 0.27,-0.59, 9.62, 8033
25.02, 101644.66, 0.23,-0.54, 9.62, 8038
25.02, 101642.92, 0.17,-0.61, 9.62, 8043
25.02, 101642.92, 0.21,-0.54, 9.58, 8048
25.02, 101642.92, 0.23,-0.50, 9.58, 8053
25.02, 101642.92, 0.17,-0.56, 9.66, 8058
25.02, 101642.92, 0.19,-0.61, 9.71, 8063
25.02, 101642.92, 0.21,-0.52, 9.73, 8068
25.02, 101642.92, 0.17,-0.50, 9.71, 8073
25.02, 101644.83, 0.19,-0.65, 9.71, 8078
25.02, 101644.83, 0.21,-0.57, 9.67, 8083
25.02, 101644.83, 0.25,-0.57, 9.62, 8088
25.02, 101644.83, 0.17,-0.54, 9.66, 8093
25.02, 101644.83, 0.31,-0.52, 9.62, 8098
25.02, 101644.83, 0.19,-0.59, 9.48, 8103
25.02, 101644.83, 0.17,-0.61, 9.67, 8108
25.02, 101644.34, 0.25,-0.57, 9.75, 8113
25.02, 101644.34, 0.23,-0.56, 9.69, 8118
25.02, 101644.34, 0.23,-0.57, 9.56, 8123
25.02, 101644.34, 0.08,-0.54, 9.69, 8128
25.02, 101644.34, 0.19,-0.46, 9.62, 8133
25.02, 101644.34, 0.08,-0.40, 9.48, 8138
25.02, 101644.34, -0.04,-0.34, 9.54, 8143
25.02, 101644.73, 0.10,-0.65, 9.75, 8148
25.02, 101644.73, 0.36,-0.90, 9.81, 8153
25.02, 101644.73, 0.36,-0.94, 9.56, 8158
25.02, 101644.73, 0.21,-0.63, 9.50, 8163
25.02, 101644.73, 0.25,-0.61, 9.67, 8168
25.02, 101644.73, 0.40,-0.59, 9.87, 8173
25.02, 101644.73, 0.36,-0.48, 9.71, 8178
25.02, 101647.03, 0.29,-0.29, 9.43, 8183
25.02, 101647.03, 0.25,-0.29, 9.50, 8188
25.02, 101647.03, 0.38,-0.54, 9.85, 8193
25.02, 101647.03, 0.38,-0.57, 9.85, 8198
25.02, 101647.03, 0.25,-0.57, 9.58, 8203
25.02, 101647.03, 0.31,-0.59, 9.48, 8208
25.02, 101647.03, 0.36,-0.57, 9.73, 8213
25.02, 101643.09, 0.38,-0.50, 9.56, 8218
25.02, 101643.09, 0.17,-0.42, 9.60, 8223
25.02, 101643.09, 0.29,-0.46, 9.58, 8228
25.02, 101643.09, 0.33,-0.52, 9.54, 8233
25.02, 101643.09, 0.31,-0.54, 9.54, 8238
25.02, 101643.09, 0.31,-0.57, 9.62, 8243
25.02, 101643.09, 0.31,-0.56, 9.75, 8248
25.02, 101644.24, 0.21,-0.57, 9.67, 8253
25.02, 101644.24, 0.27,-0.56, 9.66, 8258
25.02, 101644.24, 0.17,-0.57, 9.69, 8263
25.02, 101644.24, 0.15,-0.57, 9.67, 8268
25.02, 101644.24, 0.15,-0.56, 9.66, 8273
25.02, 101644.24, 0.23,-0.59, 9.52, 8278
25.02, 101644.24, 0.21,-0.57, 9.56, 8283
25.02, 101642.43, 0.17,-0.56, 9.60, 8288
25.02, 101642.43, 0.27,-0.59, 9.64, 8293
25.02, 101642.43, 0.29,-0.61, 9.69, 8298
25.02, 101642.43, 0.27,-0.57, 9.73, 8303
25.02, 101642.43, 0.13,-0.52, 9.66, 8308
25.02, 101642.43, 0.10,-0.46, 9.66, 8313
25.02, 101642.43, 0.21,-0.52, 9.62, 8318
25.02, 101642.27, 0.19,-0.56, 9.31, 8323
25.02, 101642.27, 0.17,-0.63, 9.48, 8328
25.02, 101642.27, 0.23,-0.57, 9.69, 8333
25.02, 101642.27, 0.23,-0.57, 9.71, 8338
25.02, 101642.27, 0.19,-0.59, 9.69, 8343
25.02, 101642.27, 0.29,-0.52, 9.64, 8348
25.02, 101642.27, 0.36,-0.57, 9.69, 8353
25.02, 101642.27, 0.31,-0.52, 9.62, 8358
25.02, 101642.27, 0.33,-0.48, 9.75, 8363
25.02, 101642.27, 0.38,-0.54, 9.71, 8368
25.02, 101642.27, 0.29,-0.48, 9.64, 8373
25.02, 101642.27, 0.31,-0.56, 9.58, 8378
25.02, 101642.27, 0.27,-0.59, 9.56, 8383
25.02, 101642.27, 0.29,-0.59, 9.60, 8388
25.02, 101642.27, 0.27,-0.61, 9.60, 8393
25.02, 101644.66, 0.29,-0.56, 9.60, 8398
25.02, 101644.66, 0.23,-0.56, 9.62, 8403
25.02, 101644.66, 0.21,-0.52, 9.56, 8408
25.02, 101644.66, 0.21,-0.48, 9.67, 8413
25.02, 101644.66, 0.21,-0.57, 9.66, 8418
25.02, 101644.66, 0.21,-0.63, 9.66, 8423
25.02, 101644.66, 0.27,-0.59, 9.56, 8428
25.02, 101645.66, 0.27,-0.57, 9.48, 8433
25.02, 101645.66, 0.15,-0.57, 9.62, 8445
25.02, 101645.66, 0.17,-0.57, 9.62, 8449
25.02, 101645.66, 0.19,-0.61, 9.56, 8454
25.02, 101645.66, 0.21,-0.54, 9.64, 8459
25.02, 101645.66, 0.29,-0.59, 9.56, 8464
25.02, 101644.72, 0.29,-0.52, 9.77, 8469
25.02, 101644.72, 0.29,-0.57, 9.64, 8474
25.02, 101644.72, 0.19,-0.61, 9.62, 8479
25.02, 101644.72, 0.21,-0.61, 9.56, 8484
25.02, 101644.72, 0.19,-0.56, 9.71, 8489
25.02, 101644.72, 0.19,-0.46, 9.67, 8494
25.02, 101644.72, 0.27,-0.50, 9.60, 8499
25.02, 101645.16, 0.25,-0.52, 9.56, 8504
25.02, 101645.16, 0.29,-0.57, 9.66, 8509
25.02, 101645.16, 0.29,-0.56, 9.58, 8514
25.02, 101645.16, 0.19,-0.52, 9.60, 8519
25.02, 101645.16, 0.29,-0.50, 9.62, 8524
25.02, 101645.16, 0.27,-0.48, 9.67, 8529
25.02, 101645.16, 0.25,-0.57, 9.64, 8534
25.02, 101643.02, 0.27,-0.57, 9.64, 8539
25.02, 101643.02, 0.27,-0.50, 9.62, 8544
25.02, 101643.02, 0.21,-0.52, 9.66, 8549
25.02, 101643.02, 0.23,-0.57, 9.67, 8554
25.02, 101643.02, 0.15,-0.54, 9.66, 8559
25.02, 101643.02, 0.13,-0.56, 9.66, 8564
25.02, 101643.02, 0.25,-0.48, 9.62, 8569
25.02, 101645.50, 0.27,-0.59, 9.66, 8574
25.02, 101645.50, 0.27,-0.61, 9.79, 8579
25.02, 101645.50, 0.23,-0.56, 9.46, 8584
25.02, 101645.50, 0.17,-0.54, 9.71, 8589
25.02, 101645.50, 0.21,-0.56, 9.71, 8594
25.02, 101645.50, 0.21,-0.56, 9.54, 8599
25.02, 101645.50, 0.19,-0.57, 9.67, 8604
25.02, 101643.73, 0.25,-0.56, 9.69, 8609
25.02, 101643.73, 0.23,-0.57, 9.69, 8614
25.02, 101643.73, 0.25,-0.59, 9.58, 8619
25.02, 101643.73, 0.29,-0.50, 9.60, 8624
25.02, 101643.73, 0.31,-0.52, 9.69, 8629
25.02, 101643.73, 0.27,-0.59, 9.64, 8634
25.02, 101643.73, 0.27,-0.52, 9.66, 8639
25.02, 101643.34, 0.21,-0.57, 9.66, 8644
25.02, 101643.34, 0.23,-0.57, 9.64, 8649
25.02, 101643.34, 0.23,-0.50, 9.60, 8654
25.02, 101643.34, 0.21,-0.54, 9.66, 8659
25.02, 101643.34, 0.21,-0.52, 9.62, 8664
25.02, 101643.34, 0.23,-0.52, 9.64, 8669
25.02, 101643.34, 0.25,-0.44, 9.67, 8674
25.02, 101643.51, 0.27,-0.54, 9.66, 8679
25.02, 101643.51, 0.25,-0.57, 9.66, 8684
25.02, 101643.51, 0.21,-0.50, 9.67, 8689
25.02, 101643.51, 0.29,-0.44, 9.62, 8694
25.02, 101643.51, 0.23,-0.56, 9.52, 8699
25.02, 101643.51, 0.27,-0.54, 9.73, 8704
25.02, 101643.51, 0.29,-0.57, 9.64, 8709
25.02, 101642.54, 0.25,-0.67, 9.62, 8714
25.02, 101642.54, 0.23,-0.63, 9.66, 8719
25.02, 101642.54, 0.31,-0.54, 9.52, 8724
25.02, 101642.54, 0.31,-0.57, 9.54, 8729
25.02, 101642.54, 0.38,-0.56, 9.54, 8734
25.02, 101642.54, 0.29,-0.54, 9.62, 8739
25.02, 101642.54, 0.27,-0.54, 9.60, 8744
25.02, 101643.84, 0.23,-0.59, 9.60, 8749
25.02, 101643.84, 0.27,-0.59, 9.62, 8754
25.02, 101643.84, 0.27,-0.54, 9.64, 8759
25.02, 101643.84, 0.25,-0.59, 9.67, 8764
25.02, 101643.84, 0.27,-0.59, 9.64, 8769
25.02, 101643.84, 0.19,-0.61, 9.62, 8774
25.02, 101643.84, 0.27,-0.56, 9.58, 8779
25.02, 101643.84, 0.27,-0.44, 9.62, 8784
25.02, 101642.85, 0.19,-0.56, 9.67, 8789
25.02, 101642.85, 0.25,-0.59, 9.69, 8794
25.02, 101642.85, 0.29,-0.56, 9.66, 8799
25.02, 101642.85, 0.23,-0.52, 9.66, 8804
25.02, 101642.85, 0.27,-0.56, 9.77, 8809
25.02, 101642.85, 0.33,-0.56, 9.79, 8814
25.02, 101642.85, 0.29,-0.63, 9.58, 8819
25.02, 101644.23, 0.21,-0.59, 9.45, 8824
25.02, 101644.23, 0.21,-0.50, 9.50, 8829
25.02, 101644.23, 0.19,-0.54, 9.50, 8834
25.02, 101644.23, 0.23,-0.54, 9.79, 8839
25.02, 101644.23, 0.23,-0.48, 9.75, 8844
25.02, 101644.23, 0.29,-0.52, 9.60, 8849
25.02, 101644.23, 0.21,-0.56, 9.69, 8854
25.02, 101646.48, 0.21,-0.56, 9.67, 8859
25.02, 101646.48, 0.29,-0.56, 9.60, 8864
25.02, 101646.48, 0.29,-0.57, 9.69, 8869
25.02, 101646.48, 0.25,-0.61, 9.62, 8874
25.02, 101646.48, 0.33,-0.59, 9.54, 8879
25.02, 101646.48, 0.38,-0.59, 9.60, 8884
25.02, 101646.48, 0.27,-0.63, 9.62, 8889
25.02, 101646.21, 0.21,-0.61, 9.62, 8894
25.02, 101646.21, 0.29,-0.57, 9.62, 8899
25.02, 101646.21, 0.23,-0.56, 9.60, 8904
25.02, 101646.21, 0.27,-0.59, 9.64, 8909
25.02, 101646.21, 0.23,-0.54, 9.58, 8914
25.02, 101646.21, 0.23,-0.57, 9.60, 8919
25.02, 101646.21, 0.23,-0.54, 9.60, 8924
25.02, 101643.51, 0.23,-0.61, 9.60, 8929
25.02, 101643.51, 0.21,-0.59, 9.77, 8934
25.02, 101643.51, 0.25,-0.61, 9.81, 8939
25.02, 101643.51, 0.23,-0.57, 9.71, 8946
25.02, 101643.51, 0.25,-0.61, 9.62, 8951
25.02, 101643.51, 0.27,-0.56, 9.60, 8956
25.02, 101643.51, 0.23,-0.52, 9.60, 8961
25.02, 101642.92, 0.25,-0.56, 9.64, 8966
25.02, 101642.92, 0.31,-0.59, 9.66, 8971
25.02, 101642.92, 0.29,-0.59, 9.60, 8976
25.02, 101642.92, 0.21,-0.57, 9.60, 8981
25.02, 101642.92, 0.27,-0.59, 9.60, 8986
25.02, 101642.92, 0.25,-0.56, 9.62, 8991
25.02, 101642.92, 0.25,-0.54, 9.71, 8996
25.02, 101645.38, 0.21,-0.59, 9.69, 9001
25.02, 101645.38, 0.23,-0.54, 9.58, 9006
25.02, 101645.38, 0.29,-0.57, 9.62, 9011
25.02, 101645.38, 0.31,-0.50, 9.67, 9016
25.02, 101645.38, 0.25,-0.52, 9.62, 9021
25.02, 101645.38, 0.17,-0.57, 9.67, 9026
25.02, 101645.38, 0.21,-0.65, 9.79, 9031
25.02, 101642.76, 0.17,-0.59, 9.73, 9036
25.02, 101642.76, 0.15,-0.63, 9.67, 9041
25.02, 101642.76, 0.19,-0.56, 9.64, 9046
25.02, 101642.76, 0.33,-0.50, 9.60, 9051
25.02, 101642.76, 0.27,-0.52, 9.67, 9056
25.02, 101642.76, 0.29,-0.61, 9.64, 9061
25.02, 101642.76, 0.21,-0.61, 9.64, 9066
25.02, 101646.54, 0.29,-0.54, 9.62, 9071
25.02, 101646.54, 0.27,-0.56, 9.60, 9076
25.02, 101646.54, 0.27,-0.61, 9.60, 9081
25.02, 101646.54, 0.21,-0.57, 9.62, 9086
25.02, 101646.54, 0.23,-0.57, 9.60, 9091
25.02, 101646.54, 0.21,-0.61, 9.64, 9096
25.02, 101646.54, 0.25,-0.57, 9.62, 9101
25.02, 101643.23, 0.19,-0.57, 9.69, 9106
25.02, 101643.23, 0.17,-0.56, 9.66, 9111
25.02, 101643.23, 0.27,-0.54, 9.66, 9116
25.02, 101643.23, 0.23,-0.57, 9.69, 9121
25.02, 101643.23, 0.21,-0.59, 9.66, 9126
25.02, 101643.23, 0.29,-0.61, 9.64, 9131
25.02, 101643.23, 0.23,-0.61, 9.62, 9136
25.02, 101643.75, 0.21,-0.57, 9.67, 9141
25.02, 101643.75, 0.29,-0.65, 9.52, 9146
25.02, 101643.75, 0.21,-0.67, 9.48, 9151
25.02, 101643.75, 0.23,-0.57, 9.79, 9156
25.02, 101643.75, 0.21,-0.57, 9.71, 9161
25.02, 101643.75, 0.23,-0.56, 9.69, 9166
25.02, 101643.75, 0.15,-0.56, 9.67, 9171
25.02, 101643.90, 0.13,-0.57, 9.75, 9176
25.02, 101643.90, 0.27,-0.54, 9.56, 9181
25.02, 101643.90, 0.21,-0.56, 9.62, 9186
25.02, 101643.90, 0.19,-0.54, 9.64, 9191
25.02, 101643.90, 0.21,-0.50, 9.66, 9196
25.02, 101643.90, 0.33,-0.57, 9.62, 9201
25.02, 101643.90, 0.25,-0.63, 9.62, 9206
25.02, 101644.50, 0.23,-0.56, 9.62, 9211
25.02, 101644.50, 0.29,-0.46, 9.71, 9216
25.02, 101644.50, 0.23,-0.56, 9.69, 9221
25.02, 101644.50, 0.29,-0.54, 9.66, 9226
25.02, 101644.50, 0.27,-0.52, 9.67, 9231
25.02, 101644.50, 0.29,-0.59, 9.66, 9236
25.02, 101644.50, 0.21,-0.54, 9.69, 9241
25.02, 101644.89, 0.27,-0.56, 9.67, 9246
25.02, 101644.89, 0.25,-0.67, 9.62, 9251
25.02, 101644.89, 0.23,-0.65, 9.67, 9256
25.02, 101644.89, 0.29,-0.52, 9.64, 9261
25.02, 101644.89, 0.31,-0.50, 9.73, 9266
25.02, 101644.89, 0.27,-0.50, 9.62, 9271
25.02, 101644.89, 0.27,-0.56, 9.71, 9276
25.02, 101646.38, 0.25,-0.52, 9.66, 9281
25.02, 101646.38, 0.19,-0.57, 9.69, 9286
25.02, 101646.38, 0.29,-0.67, 9.64, 9291
25.02, 101646.38, 0.29,-0.61, 9.58, 9296
25.02, 101646.38, 0.19,-0.57, 9.58, 9301
25.02, 101646.38, 0.17,-0.59, 9.62, 9306
25.02, 101646.38, 0.23,-0.54, 9.56, 9311
25.02, 101646.38, 0.21,-0.61, 9.62, 9316
25.02, 101644.12, 0.38,-0.52, 9.66, 9321
25.02, 101644.12, 0.27,-0.54, 9.60, 9326
25.02, 101644.12, 0.23,-0.52, 9.62, 9331
25.02, 101644.12, 0.25,-0.52, 9.62, 9336
25.02, 101644.12, 0.25,-0.56, 9.62, 9341
25.02, 101644.12, 0.27,-0.54, 9.69, 9346
25.02, 101644.12, 0.23,-0.57, 9.69, 9351
25.02, 101641.59, 0.23,-0.57, 9.54, 9356
25.02, 101641.59, 0.23,-0.56, 9.56, 9361
25.02, 101641.59, 0.21,-0.61, 9.64, 9366
25.02, 101641.59, 0.23,-0.56, 9.50, 9371
25.02, 101641.59, 0.19,-0.63, 9.66, 9376
25.02, 101641.59, 0.19,-0.57, 9.60, 9381
25.02, 101641.59, 0.17,-0.61, 9.67, 9386
25.02, 101642.74, 0.21,-0.59, 9.69, 9391
25.02, 101642.74, 0.15,-0.57, 9.58, 9396
25.02, 101642.74, 0.15,-0.54, 9.56, 9401
25.02, 101642.74, 0.19,-0.57, 9.58, 9406
25.02, 101642.74, 0.23,-0.59, 9.67, 9411
25.02, 101642.74, 0.23,-0.52, 9.64, 9416
25.02, 101642.74, 0.17,-0.61, 9.62, 9421
25.02, 101641.03, 0.23,-0.56, 9.62, 9426
25.02, 101641.03, 0.23,-0.52, 9.60, 9431
25.02, 101641.03, 0.31,-0.56, 9.67, 9436
25.02, 101641.03, 0.25,-0.57, 9.62, 9441
25.02, 101641.03, 0.25,-0.50, 9.66, 9449
25.02, 101641.03, 0.27,-0.52, 9.66, 9453
25.02, 101641.03, 0.25,-0.48, 9.69, 9458
25.02, 101642.19, 0.29,-0.54, 9.79, 9463
25.02, 101642.19, 0.25,-0.65, 9.75, 9468
25.02, 101642.19, 0.27,-0.56, 9.77, 9473
25.02, 101642.19, 0.33,-0.59, 9.41, 9478
25.02, 101642.19, 0.21,-0.54, 9.60, 9483
25.02, 101642.19, 0.19,-0.54, 9.62, 9488
25.02, 101642.19, 0.23,-0.50, 9.56, 9493
25.02, 101641.59, 0.27,-0.56, 9.54, 9498
25.02, 101641.59, 0.15,-0.52, 9.62, 9503
25.02, 101641.59, 0.21,-0.56, 9.66, 9508
25.02, 101641.59, 0.17,-0.56, 9.58, 9513
25.02, 101641.59, 0.19,-0.54, 9.66, 9518
25.02, 101641.59, 0.19,-0.54, 9.66, 9523
25.02, 101641.59, 0.23,-0.56, 9.69, 9528
25.02, 101641.70, 0.23,-0.54, 9.73, 9533
25.02, 101641.70, 0.15,-0.56, 9.62, 9538
25.02, 101641.70, 0.15,-0.56, 9.56, 9543
25.02, 101641.70, 0.23,-0.56, 9.60, 9548
25.02, 101641.70, 0.21,-0.56, 9.58, 9553
25.02, 101641.70, 0.23,-0.65, 9.62, 9558
25.02, 101641.70, 0.23,-0.63, 9.52, 9563
25.02, 101643.12, 0.21,-0.57, 9.60, 9568
25.02, 101643.12, 0.25,-0.56, 9.60, 9573
25.02, 101643.12, 0.31,-0.59, 9.69, 9578
25.02, 101643.12, 0.31,-0.65, 9.71, 9583
25.02, 101643.12, 0.27,-0.50, 9.45, 9588
25.02, 101643.12, 0.25,-0.54, 9.58, 9593
25.02, 101643.12, 0.33,-0.52, 9.58, 9598
25.02, 101642.52, 0.29,-0.52, 9.60, 9603
25.02, 101642.52, 0.29,-0.48, 9.66, 9608
25.02, 101642.52, 0.19,-0.54, 9.73, 9613
25.02, 101642.52, 0.27,-0.59, 9.64, 9618
25.02, 101642.52, 0.27,-0.59, 9.62, 9623
25.02, 101642.52, 0.21,-0.54, 9.64, 9628
25.02, 101642.52, 0.23,-0.57, 9.62, 9633
25.02, 101643.02, 0.25,-0.56, 9.67, 9638
25.02, 101643.02, 0.23,-0.59, 9.67, 9643
25.02, 101643.02, 0.19,-0.56, 9.64, 9648
25.02, 101643.02, 0.21,-0.56, 9.64, 9653
25.02, 101643.02, 0.19,-0.56, 9.66, 9658
25.02, 101643.02, 0.21,-0.57, 9.66, 9663
25.02, 101643.02, 0.23,-0.54, 9.62, 9668
25.02, 101643.51, 0.21,-0.63, 9.56, 9673
25.02, 101643.51, 0.21,-0.63, 9.64, 9678
25.02, 101643.51, 0.19,-0.63, 9.66, 9683
25.02, 101643.51, 0.23,-0.56, 9.48, 9688
25.02, 101643.51, 0.17,-0.50, 9.58, 9693
25.02, 101643.51, 0.21,-0.50, 9.67, 9698
25.02, 101643.51, 0.21,-0.52, 9.64, 9703
25.02, 101644.78, 0.23,-0.50, 9.71, 9708
25.02, 101644.78, 0.25,-0.54, 9.71, 9713
25.02, 101644.78, 0.23,-0.56, 9.71, 9718
25.02, 101644.78, 0.23,-0.52, 9.60, 9723
25.02, 101644.78, 0.27,-0.54, 9.52, 9728
25.02, 101644.78, 0.25,-0.59, 9.58, 9733
25.02, 101644.78, 0.29,-0.59, 9.62, 9738
25.02, 101646.10, 0.25,-0.59, 9.50, 9743
25.02, 101646.10, 0.31,-0.57, 9.64, 9748
25.02, 101646.10, 0.23,-0.59, 9.64, 9753
25.02, 101646.10, 0.19,-0.52, 9.64, 9758
25.02, 101646.10, 0.21,-0.59, 9.66, 9763
25.02, 101646.10, 0.23,-0.56, 9.58, 9768
25.02, 101646.10, 0.19,-0.59, 9.64, 9773
25.02, 101643.57, 0.25,-0.59, 9.56, 9778
25.02, 101643.57, 0.31,-0.59, 9.58, 9783
25.02, 101643.57, 0.19,-0.59, 9.60, 9788
25.02, 101643.57, 0.23,-0.57, 9.67, 9793
25.02, 101643.57, 0.19,-0.54, 9.64, 9798
25.02, 101643.57, 0.23,-0.52, 9.62, 9803
25.02, 101643.57, 0.27,-0.46, 9.58, 9808
25.02, 101643.57, 0.19,-0.42, 9.73, 9813
25.02, 101643.95, 0.23,-0.52, 9.56, 9818
25.02, 101643.95, 0.13,-0.54, 9.79, 9823
25.02, 101643.95, 0.19,-0.61, 9.73, 9828
25.02, 101643.95, 0.21,-0.56, 9.62, 9833
25.02, 101643.95, 0.21,-0.65, 9.64, 9838
25.02, 101643.95, 0.21,-0.61, 9.66, 9843
25.02, 101643.95, 0.31,-0.57, 9.62, 9848
25.02, 101641.25, 0.27,-0.59, 9.64, 9853
25.02, 101641.25, 0.29,-0.63, 9.58, 9858
25.02, 101641.25, 0.21,-0.59, 9.58, 9863
25.02, 101641.25, 0.27,-0.56, 9.62, 9868
25.02, 101641.25, 0.29,-0.54, 9.64, 9873
25.02, 101641.25, 0.23,-0.56, 9.67, 9878
25.02, 101641.25, 0.25,-0.65, 9.64, 9883
25.02, 101643.30, 0.19,-0.54, 9.67, 9888
25.02, 101643.30, 0.23,-0.57, 9.64, 9893
25.02, 101643.30, 0.25,-0.50, 9.69, 9898
25.02, 101643.30, 0.23,-0.57, 9.67, 9903
25.02, 101643.30, 0.21,-0.57, 9.62, 9908
25.02, 101643.30, 0.19,-0.59, 9.67, 9913
25.02, 101643.30, 0.25,-0.54, 9.69, 9918
25.02, 101644.12, 0.27,-0.48, 9.64, 9923
25.02, 101644.12, 0.23,-0.56, 9.66, 9928
25.02, 101644.12, 0.15,-0.56, 9.66, 9933
25.02, 101644.12, 0.17,-0.56, 9.66, 9938
25.02, 101644.12, 0.31,-0.56, 9.62, 9943
25.02, 101644.12, 0.25,-0.57, 9.66, 9951
25.02, 101644.67, 0.23,-0.59, 9.64, 9956
25.02, 101644.67, 0.25,-0.52, 9.50, 9960
25.02, 101644.67, 0.23,-0.57, 9.58, 9965
25.02, 101644.67, 0.21,-0.59, 9.62, 9970
25.02, 101644.67, 0.23,-0.54, 9.64, 9975
25.02, 101644.67, 0.21,-0.56, 9.62, 9980
25.02, 101644.67, 0.17,-0.56, 9.62, 9985
25.02, 101644.67, 0.15,-0.52, 9.62, 9990
25.02, 101643.52, 0.21,-0.48, 9.64, 9995
25.02, 101643.52, 0.17,-0.57, 9.56, 10000
25.02, 101643.52, 0.19,-0.52, 9.66, 10005
25.02, 101643.52, 0.17,-0.57, 9.58, 10010
25.02, 101643.52, 0.23,-0.61, 9.73, 10015
25.02, 101643.52, 0.15,-0.56, 9.45, 10020
25.02, 101643.52, 0.21,-0.57, 9.25, 10025
25.02, 101645.05, 0.33,-0.52, 9.52, 10030
25.02, 101645.05, 0.29,-0.56, 9.62, 10035
25.02, 101645.05, 0.17,-0.56, 9.64, 10040
25.02, 101645.05, 0.19,-0.61, 9.67, 10045
25.02, 101645.05, 0.27,-0.57, 9.58, 10050
25.02, 101645.05, 0.27,-0.57, 9.56, 10055
25.02, 101645.05, 0.23,-0.50, 9.58, 10060
25.02, 101645.50, 0.19,-0.57, 9.62, 10065
25.02, 101645.50, 0.17,-0.57, 9.64, 10070
25.02, 101645.50, 0.19,-0.57, 9.69, 10075
25.02, 101645.50, 0.25,-0.59, 9.60, 10080
25.02, 101645.50, 0.17,-0.61, 9.62, 10085
25.02, 101645.50, 0.17,-0.59, 9.60, 10090
25.02, 101645.50, 0.25,-0.52, 9.60, 10095
25.02, 101644.78, 0.27,-0.50, 9.71, 10100
25.02, 101644.78, 0.27,-0.54, 9.64, 10105
25.02, 101644.78, 0.25,-0.57, 9.66, 10110
25.02, 101644.78, 0.29,-0.56, 9.66, 10115
25.02, 101644.78, 0.29,-0.52, 9.60, 10120
25.02, 101644.78, 0.29,-0.50, 9.64, 10125
25.02, 101644.78, 0.31,-0.56, 9.62, 10130
25.02, 101643.23, 0.19,-0.56, 9.71, 10135
25.02, 101643.23, 0.19,-0.61, 9.62, 10140
25.02, 101643.23, 0.19,-0.56, 9.62, 10145
25.02, 101643.23, 0.13,-0.59, 9.69, 10150
25.02, 101643.23, 0.15,-0.57, 9.60, 10155
25.02, 101643.23, 0.21,-0.59, 9.62, 10160
25.02, 101643.23, 0.23,-0.63, 9.56, 10165
25.02, 101644.18, 0.21,-0.56, 9.67, 10170
25.02, 101644.18, 0.19,-0.59, 9.71, 10175
25.02, 101644.18, 0.23,-0.59, 9.66, 10180
25.02, 101644.18, 0.21,-0.57, 9.62, 10185
25.02, 101644.18, 0.21,-0.54, 9.66, 10190
25.02, 101644.18, 0.23,-0.59, 9.69, 10195
25.02, 101644.18, 0.23,-0.56, 9.64, 10200
25.02, 101646.16, 0.21,-0.57, 9.64, 10205
25.02, 101646.16, 0.21,-0.54, 9.60, 10210
25.02, 101646.16, 0.19,-0.69, 9.56, 10215
25.02, 101646.16, 0.23,-0.63, 9.67, 10220
25.02, 101646.16, 0.27,-0.59, 9.64, 10225
25.02, 101646.16, 0.19,-0.57, 9.66, 10230
25.02, 101646.16, 0.27,-0.54, 9.56, 10235
25.02, 101644.95, 0.21,-0.57, 9.64, 10240
25.02, 101644.95, 0.27,-0.61, 9.64, 10245
25.02, 101644.95, 0.23,-0.52, 9.73, 10250
25.02, 101644.95, 0.19,-0.46, 9.67, 10255
25.02, 101644.95, 0.17,-0.52, 9.62, 10260
25.02, 101644.95, 0.29,-0.56, 9.60, 10265
25.02, 101644.95, 0.21,-0.54, 9.64, 10270
25.02, 101645.50, 0.27,-0.56, 9.69, 10275
25.02, 101645.50, 0.27,-0.54, 9.66, 10280
25.02, 101645.50, 0.21,-0.52, 9.60, 10285
25.02, 101645.50, 0.23,-0.56, 9.64, 10290
25.02, 101645.50, 0.25,-0.59, 9.62, 10295
25.02, 101645.50, 0.23,-0.61, 9.64, 10300
25.02, 101645.50, 0.23,-0.59, 9.60, 10305
25.02, 101645.44, 0.21,-0.50, 9.60, 10310
25.02, 101645.44, 0.23,-0.57, 9.66, 10315
25.02, 101645.44, 0.17,-0.57, 9.66, 10320
25.02, 101645.44, 0.15,-0.57, 9.73, 10325
25.02, 101645.44, 0.23,-0.57, 9.77, 10330
25.02, 101645.44, 0.21,-0.59, 9.60, 10335
25.02, 101645.44, 0.19,-0.50, 9.66, 10340
25.02, 101645.44, 0.23,-0.54, 9.71, 10345
25.02, 101644.78, 0.19,-0.54, 9.71, 10350
25.02, 101644.78, 0.21,-0.61, 9.73, 10355
25.02, 101644.78, 0.25,-0.52, 9.66, 10360
25.02, 101644.78, 0.23,-0.59, 9.58, 10365
25.02, 101644.78, 0.25,-0.59, 9.60, 10370
25.02, 101644.78, 0.25,-0.54, 9.50, 10375
25.02, 101644.78, 0.25,-0.56, 9.56, 10380
25.02, 101646.00, 0.25,-0.52, 9.67, 10385
25.02, 101646.00, 0.21,-0.52, 9.60, 10390
25.02, 101646.00, 0.15,-0.61, 9.58, 10395
25.02, 101646.00, 0.21,-0.56, 9.58, 10400
25.02, 101646.00, 0.27,-0.56, 9.62, 10405
25.02, 101646.00, 0.19,-0.56, 9.62, 10410
25.02, 101646.00, 0.23,-0.57, 9.64, 10415
25.02, 101645.66, 0.27,-0.56, 9.69, 10420
25.02, 101645.66, 0.19,-0.56, 9.64, 10425
25.02, 101645.66, 0.21,-0.54, 9.64, 10430
25.02, 101645.66, 0.17,-0.52, 9.64, 10435
25.02, 101645.66, 0.23,-0.61, 9.64, 10440
25.02, 101645.66, 0.29,-0.56, 9.46, 10445
25.02, 101644.56, 0.27,-0.57, 9.60, 10453
25.02, 101644.56, 0.27,-0.63, 9.48, 10457
25.02, 101644.56, 0.25,-0.54, 9.54, 10462
25.02, 101644.56, 0.23,-0.52, 9.54, 10467
25.02, 101644.56, 0.31,-0.50, 9.58, 10472
25.02, 101644.56, 0.23,-0.52, 9.58, 10477
25.02, 101644.56, 0.27,-0.57, 9.54, 10482
25.02, 101644.56, 0.25,-0.50, 9.58, 10487
25.02, 101647.96, 0.25,-0.46, 9.67, 10492
25.02, 101647.96, 0.23,-0.56, 9.66, 10497
25.02, 101647.96, 0.21,-0.59, 9.60, 10502
25.02, 101647.96, 0.19,-0.57, 9.60, 10507
25.02, 101647.96, 0.19,-0.71, 9.66, 10512
25.02, 101647.96, 0.19,-0.61, 9.66, 10517
25.02, 101647.96, 0.23,-0.57, 9.69, 10522
25.02, 101647.09, 0.23,-0.54, 9.58, 10527
25.02, 101647.09, 0.19,-0.57, 9.66, 10532
25.02, 101647.09, 0.27,-0.56, 9.60, 10537
25.02, 101647.09, 0.29,-0.54, 9.67, 10542
25.02, 101647.09, 0.31,-0.50, 9.41, 10547
25.02, 101647.09, 0.25,-0.54, 9.64, 10552
25.02, 101647.09, 0.19,-0.54, 9.69, 10557
25.02, 101645.27, 0.23,-0.48, 9.71, 10562
25.02, 101645.27, 0.15,-0.50, 9.66, 10567
25.02, 101645.27, 0.27,-0.57, 9.62, 10572
25.02, 101645.27, 0.23,-0.54, 9.64, 10577
25.02, 101645.27, 0.19,-0.57, 9.64, 10582
25.02, 101645.27, 0.21,-0.52, 9.69, 10587
25.02, 101645.27, 0.27,-0.59, 9.60, 10592
25.02, 101647.91, 0.19,-0.54, 9.67, 10597
25.02, 101647.91, 0.23,-0.56, 9.62, 10602
25.02, 101647.91, 0.25,-0.61, 9.64, 10607
25.02, 101647.91, 0.25,-0.48, 9.67, 10612
25.02, 101647.91, 0.17,-0.52, 9.67, 10617
25.02, 101647.91, 0.19,-0.57, 9.67, 10622
25.02, 101647.91, 0.15,-0.54, 9.67, 10627
25.02, 101647.81, 0.19,-0.54, 9.69, 10632
25.02, 101647.81, 0.21,-0.56, 9.62, 10637
25.02, 101647.81, 0.29,-0.42, 9.56, 10642
25.02, 101647.81, 0.19,-0.54, 9.50, 10647
25.02, 101647.81, 0.25,-0.50, 9.62, 10652
25.02, 101647.81, 0.29,-0.50, 9.64, 10657
25.02, 101647.81, 0.33,-0.56, 9.62, 10662
25.02, 101645.22, 0.17,-0.54, 9.60, 10667
25.02, 101645.22, 0.23,-0.56, 9.71, 10672
25.02, 101645.22, 0.19,-0.54, 9.75, 10677
25.02, 101645.22, 0.27,-0.48, 9.66, 10682
25.02, 101645.22, 0.27,-0.54, 9.58, 10687
25.02, 101645.22, 0.19,-0.54, 9.71, 10692
25.02, 101645.22, 0.19,-0.67, 9.64, 10697
25.02, 101646.66, 0.21,-0.50, 9.64, 10702
25.02, 101646.66, 0.19,-0.52, 9.66, 10707
25.02, 101646.66, 0.23,-0.54, 9.64, 10712
25.02, 101646.66, 0.25,-0.59, 9.58, 10717
25.02, 101646.66, 0.29,-0.59, 9.64, 10722
25.02, 101646.66, 0.23,-0.61, 9.62, 10727
25.02, 101646.66, 0.25,-0.52, 9.60, 10732
25.02, 101644.78, 0.19,-0.57, 9.64, 10737
25.02, 101644.78, 0.15,-0.56, 9.67, 10742
25.02, 101644.78, 0.17,-0.48, 9.60, 10747
25.02, 101644.78, 0.23,-0.54, 9.56, 10752
25.02, 101644.78, 0.21,-0.54, 9.56, 10757
25.02, 101644.78, 0.19,-0.57, 9.54, 10762
25.02, 101644.78, 0.23,-0.56, 9.67, 10767
25.02, 101646.66, 0.23,-0.57, 9.75, 10772
25.02, 101646.66, 0.25,-0.59, 9.69, 10777
25.02, 101646.66, 0.25,-0.61, 9.67, 10782
25.02, 101646.66, 0.27,-0.59, 9.58, 10787
25.02, 101646.66, 0.25,-0.59, 9.71, 10792
25.02, 101646.66, 0.23,-0.56, 9.62, 10797
25.02, 101646.66, 0.23,-0.63, 9.64, 10802
25.02, 101646.48, 0.21,-0.56, 9.58, 10807
25.02, 101646.48, 0.27,-0.61, 9.69, 10812
25.02, 101646.48, 0.27,-0.59, 9.58, 10817
25.02, 101646.48, 0.23,-0.61, 9.66, 10822
25.02, 101646.48, 0.27,-0.56, 9.60, 10827
25.02, 101646.48, 0.25,-0.59, 9.66, 10832
25.02, 101646.48, 0.21,-0.59, 9.66, 10837
25.02, 101646.48, 0.29,-0.54, 9.62, 10842
25.02, 101644.34, 0.19,-0.52, 9.62, 10847
25.02, 101644.34, 0.29,-0.56, 9.62, 10852
25.02, 101644.34, 0.21,-0.52, 9.56, 10857
25.02, 101644.34, 0.23,-0.56, 9.60, 10862
25.02, 101644.34, 0.29,-0.59, 9.58, 10867
25.02, 101644.34, 0.21,-0.59, 9.62, 10872
25.02, 101644.34, 0.15,-0.59, 9.54, 10877
25.02, 101646.98, 0.23,-0.48, 9.58, 10882
25.02, 101646.98, 0.21,-0.59, 9.67, 10887
25.02, 101646.98, 0.23,-0.57, 9.67, 10892
25.02, 101646.98, 0.21,-0.63, 9.54, 10897
25.02, 101646.98, 0.21,-0.61, 9.67, 10902
25.02, 101646.98, 0.21,-0.57, 9.52, 10907
25.02, 101646.98, 0.25,-0.59, 9.56, 10912
25.02, 101644.78, 0.21,-0.63, 9.60, 10917
25.02, 101644.78, 0.19,-0.52, 9.62, 10922
25.02, 101644.78, 0.19,-0.57, 9.62, 10927
25.02, 101644.78, 0.19,-0.56, 9.62, 10932
25.02, 101644.78, 0.19,-0.54, 9.58, 10937
25.02, 101644.78, 0.23,-0.54, 9.60, 10942
25.02, 101644.78, 0.33,-0.54, 9.60, 10947
25.02, 101647.24, 0.25,-0.50, 9.58, 10955
25.02, 101647.24, 0.23,-0.54, 9.52, 10959
25.02, 101647.24, 0.27,-0.65, 9.60, 10964
25.02, 101647.24, 0.25,-0.63, 9.60, 10969
25.02, 101647.24, 0.29,-0.46, 9.58, 10974
25.02, 101647.24, 0.19,-0.59, 9.62, 10979
25.02, 101647.24, 0.19,-0.63, 9.71, 10984
25.02, 101645.50, 0.25,-0.59, 9.67, 10989
25.02, 101645.50, 0.27,-0.63, 9.67, 10994
25.02, 101645.50, 0.23,-0.54, 9.50, 10999
25.02, 101645.50, 0.27,-0.57, 9.39, 11004
25.02, 101645.50, 0.27,-0.56, 9.48, 11009
25.02, 101645.50, 0.29,-0.59, 9.62, 11014
25.02, 101645.50, 0.21,-0.57, 9.52, 11019
25.02, 101645.59, 0.19,-0.56, 9.64, 11024
25.02, 101645.59, 0.25,-0.57, 9.62, 11029
25.02, 101645.59, 0.21,-0.48, 9.62, 11034
25.02, 101645.59, 0.17,-0.54, 9.64, 11039
25.02, 101645.59, 0.19,-0.54, 9.58, 11044
25.02, 101645.59, 0.27,-0.50, 9.58, 11049
25.02, 101645.59, 0.23,-0.52, 9.60, 11054
25.02, 101644.67, 0.23,-0.57, 9.64, 11059
25.02, 101644.67, 0.15,-0.54, 9.64, 11064
25.02, 101644.67, 0.23,-0.57, 9.66, 11069
25.02, 101644.67, 0.21,-0.57, 9.64, 11074
25.02, 101644.67, 0.21,-0.63, 9.67, 11079
25.02, 101644.67, 0.25,-0.59, 9.54, 11084
25.02, 101644.67, 0.25,-0.44, 9.67, 11089
25.02, 101646.00, 0.21,-0.56, 9.79, 11094
25.02, 101646.00, 0.19,-0.59, 9.66, 11099
25.02, 101646.00, 0.10,-0.56, 9.62, 11104
25.02, 101646.00, 0.15,-0.56, 9.75, 11109
25.02, 101646.00, 0.15,-0.56, 9.71, 11114
25.02, 101646.00, 0.25,-0.56, 9.66, 11119
25.02, 101646.00, 0.33,-0.57, 9.67, 11124
25.02, 101644.51, 0.29,-0.57, 9.67, 11129
25.02, 101644.51, 0.25,-0.54, 9.71, 11134
25.02, 101644.51, 0.25,-0.59, 9.66, 11139
25.02, 101644.51, 0.29,-0.59, 9.64, 11144
25.02, 101644.51, 0.31,-0.57, 9.64, 11149
25.02, 101644.51, 0.33,-0.61, 9.58, 11154
25.02, 101644.51, 0.23,-0.63, 9.64, 11159
25.02, 101645.50, 0.25,-0.59, 9.69, 11164
25.02, 101645.50, 0.19,-0.61, 9.64, 11169
25.02, 101645.50, 0.21,-0.57, 9.66, 11174
25.02, 101645.50, 0.21,-0.57, 9.64, 11179
25.02, 101645.50, 0.23,-0.52, 9.56, 11184
25.02, 101645.50, 0.21,-0.59, 9.58, 11189
25.02, 101645.50, 0.25,-0.56, 9.66, 11194
25.02, 101644.77, 0.29,-0.57, 9.50, 11199
25.02, 101644.77, 0.29,-0.54, 9.64, 11204
25.02, 101644.77, 0.23,-0.69, 9.58, 11209
25.02, 101644.77, 0.19,-0.63, 9.60, 11214
25.02, 101644.77, 0.27,-0.63, 9.41, 11219
25.02, 101644.77, 0.27,-0.56, 9.75, 11224
25.02, 101644.77, 0.19,-0.57, 9.69, 11229
25.02, 101644.18, 0.25,-0.59, 9.73, 11234
25.02, 101644.18, 0.31,-0.48, 9.60, 11239
25.02, 101644.18, 0.29,-0.50, 9.54, 11244
25.02, 101644.18, 0.25,-0.54, 9.56, 11249
25.02, 101644.18, 0.29,-0.59, 9.58, 11254
25.02, 101644.18, 0.25,-0.65, 9.62, 11259
25.02, 101644.18, 0.29,-0.57, 9.60, 11264
25.02, 101645.34, 0.23,-0.57, 9.60, 11269
25.02, 101645.34, 0.21,-0.56, 9.66, 11274
25.02, 101645.34, 0.29,-0.61, 9.62, 11279
25.02, 101645.34, 0.25,-0.54, 9.58, 11284
25.02, 101645.34, 0.23,-0.56, 9.69, 11289
25.02, 101645.34, 0.21,-0.57, 9.64, 11294
25.02, 101645.34, 0.27,-0.52, 9.62, 11299
25.02, 101645.00, 0.19,-0.61, 9.62, 11304
25.02, 101645.00, 0.15,-0.52, 9.62, 11309
25.02, 101645.00, 0.27,-0.52, 9.60, 11314
25.02, 101645.00, 0.23,-0.61, 9.56, 11319
25.02, 101645.00, 0.21,-0.57, 9.75, 11324
25.02, 101645.00, 0.23,-0.56, 9.56, 11329
25.02, 101645.00, 0.29,-0.54, 9.64, 11334
25.02, 101646.75, 0.25,-0.50, 9.64, 11339
25.02, 101646.75, 0.23,-0.59, 9.64, 11344
25.02, 101646.75, 0.21,-0.56, 9.58, 11349
25.02, 101646.75, 0.23,-0.54, 9.67, 11354
25.02, 101646.75, 0.23,-0.57, 9.52, 11359
25.02, 101646.75, 0.23,-0.56, 9.66, 11364
25.02, 101646.75, 0.27,-0.56, 9.64, 11369
25.02, 101646.75, 0.19,-0.54, 9.56, 11374
25.02, 101644.84, 0.21,-0.54, 9.58, 11379
25.02, 101644.84, 0.23,-0.52, 9.66, 11384
25.02, 101644.84, 0.19,-0.48, 9.67, 11389
25.02, 101644.84, 0.13,-0.56, 9.75, 11394
25.02, 101644.84, 0.17,-0.50, 9.64, 11399
25.02, 101644.84, 0.15,-0.52, 9.64, 11404
25.02, 101644.84, 0.19,-0.56, 9.67, 11409
25.02, 101645.66, 0.25,-0.57, 9.60, 11414
25.02, 101645.66, 0.25,-0.59, 9.64, 11419
25.02, 101645.66, 0.25,-0.59, 9.73, 11424
25.02, 101645.66, 0.27,-0.52, 9.75, 11429
25.02, 101645.66, 0.27,-0.54, 9.71, 11434
25.02, 101645.66, 0.23,-0.61, 9.58, 11439
25.02, 101645.66, 0.13,-0.63, 9.66, 11444
25.02, 101645.83, 0.17,-0.57, 9.62, 11449
25.02, 101645.83, 0.25,-0.59, 9.60, 11457
25.02, 101645.83, 0.21,-0.56, 9.64, 11461
25.02, 101645.83, 0.29,-0.57, 9.66, 11466
25.02, 101645.83, 0.27,-0.61, 9.67, 11471
25.02, 101645.83, 0.29,-0.56, 9.60, 11476
25.02, 101643.19, 0.27,-0.57, 9.64, 11481
25.02, 101643.19, 0.19,-0.57, 9.66, 11486
25.02, 101643.19, 0.27,-0.57, 9.66, 11491
25.02, 101643.19, 0.21,-0.61, 9.60, 11496
25.02, 101643.19, 0.21,-0.56, 9.62, 11501
25.02, 101643.19, 0.19,-0.59, 9.58, 11506
25.02, 101643.19, 0.19,-0.56, 9.75, 11511
25.02, 101643.19, 0.23,-0.54, 9.60, 11516
25.02, 101643.69, 0.23,-0.50, 9.48, 11521
25.02, 101643.69, 0.25,-0.54, 9.41, 11526
25.02, 101643.69, 0.31,-0.40, 9.45, 11531
25.02, 101643.69, 0.27,-0.50, 9.52, 11536
25.02, 101643.69, 0.21,-0.56, 9.58, 11541
25.02, 101643.69, 0.17,-0.54, 9.64, 11546
25.02, 101643.69, 0.25,-0.56, 9.58, 11551
25.02, 101645.27, 0.21,-0.57, 9.69, 11556
25.02, 101645.27, 0.25,-0.59, 9.69, 11561
25.02, 101645.27, 0.27,-0.57, 9.60, 11566
25.02, 101645.27, 0.25,-0.57, 9.69, 11571
25.02, 101645.27, 0.21,-0.52, 9.69, 11576
25.02, 101645.27, 0.23,-0.50, 9.62, 11581
25.02, 101645.27, 0.25,-0.57, 9.66, 11586
25.02, 101644.44, 0.23,-0.57, 9.64, 11591
25.02, 101644.44, 0.27,-0.63, 9.66, 11596
25.02, 101644.44, 0.29,-0.61, 9.62, 11601
25.02, 101644.44, 0.29,-0.57, 9.60, 11606
25.02, 101644.44, 0.27,-0.61, 9.66, 11611
25.02, 101644.44, 0.31,-0.57, 9.67, 11616
25.02, 101644.44, 0.21,-0.57, 9.56, 11621
25.02, 101642.12, 0.25,-0.61, 9.60, 11626
25.02, 101642.12, 0.27,-0.57, 9.48, 11631
25.02, 101642.12, 0.17,-0.59, 9.56, 11636
25.02, 101642.12, 0.17,-0.63, 9.71, 11641
25.02, 101642.12, 0.15,-0.57, 9.75, 11646
25.02, 101642.12, 0.17,-0.57, 9.64, 11651
25.02, 101642.12, 0.17,-0.56, 9.62, 11656
25.02, 101644.27, 0.23,-0.50, 9.64, 11661
25.02, 101644.27, 0.17,-0.59, 9.62, 11666
25.02, 101644.27, 0.23,-0.65, 9.66, 11671
25.02, 101644.27, 0.25,-0.59, 9.60, 11676
25.02, 101644.27, 0.19,-0.56, 9.69, 11681
25.02, 101644.27, 0.15,-0.56, 9.64, 11686
25.02, 101644.27, 0.21,-0.61, 9.64, 11691
25.02, 101644.94, 0.19,-0.57, 9.71, 11696
25.02, 101644.94, 0.21,-0.56, 9.67, 11701
25.02, 101644.94, 0.27,-0.52, 9.62, 11706
25.02, 101644.94, 0.27,-0.52, 9.64, 11711
25.02, 101644.94, 0.23,-0.50, 9.62, 11716
25.02, 101644.94, 0.21,-0.56, 9.67, 11721
25.02, 101644.94, 0.25,-0.56, 9.73, 11726
25.02, 101644.94, 0.27,-0.54, 9.60, 11731
25.02, 101644.94, 0.21,-0.50, 9.60, 11736
25.02, 101644.94, 0.11,-0.56, 9.64, 11741
25.02, 101644.94, 0.15,-0.57, 9.58, 11746
25.02, 101644.94, 0.25,-0.59, 9.64, 11751
25.02, 101644.94, 0.17,-0.56, 9.52, 11756
25.02, 101644.94, 0.25,-0.57, 9.73, 11761
25.02, 101645.92, 0.21,-0.59, 9.52, 11766
25.02, 101645.92, 0.27,-0.52, 9.60, 11771
25.02, 101645.92, 0.27,-0.59, 9.60, 11776
25.02, 101645.92, 0.27,-0.57, 9.56, 11781
25.02, 101645.92, 0.21,-0.52, 9.62, 11786
25.02, 101645.92, 0.17,-0.54, 9.60, 11791
25.02, 101645.92, 0.19,-0.56, 9.64, 11796
25.02, 101647.30, 0.19,-0.57, 9.75, 11801
25.02, 101647.30, 0.23,-0.57, 9.66, 11806
25.02, 101647.30, 0.23,-0.56, 9.67, 11811
25.02, 101647.30, 0.17,-0.56, 9.62, 11816
25.02, 101647.30, 0.25,-0.57, 9.64, 11821
25.02, 101647.30, 0.23,-0.52, 9.69, 11826
25.02, 101647.30, 0.19,-0.59, 9.60, 11831
25.02, 101646.80, 0.21,-0.59, 9.60, 11836
25.02, 101646.80, 0.25,-0.56, 9.52, 11841
25.02, 101646.80, 0.21,-0.59, 9.54, 11846
25.02, 101646.80, 0.25,-0.54, 9.62, 11851
25.02, 101646.80, 0.17,-0.57, 9.54, 11856
25.02, 101646.80, 0.19,-0.61, 9.62, 11861
25.02, 101646.80, 0.17,-0.52, 9.56, 11866
25.02, 101646.80, 0.23,-0.48, 9.69, 11871
25.02, 101646.64, 0.21,-0.61, 9.54, 11876
25.02, 101646.64, 0.23,-0.59, 9.56, 11881
25.02, 101646.64, 0.33,-0.56, 9.58, 11886
25.02, 101646.64, 0.25,-0.50, 9.54, 11891
25.02, 101646.64, 0.25,-0.61, 9.64, 11896
25.02, 101646.64, 0.13,-0.52, 9.64, 11901
25.02, 101646.64, 0.19,-0.54, 9.62, 11906
25.02, 101647.47, 0.15,-0.54, 9.75, 11911
25.02, 101647.47, 0.19,-0.57, 9.62, 11916
25.02, 101647.47, 0.23,-0.56, 9.62, 11921
25.02, 101647.47, 0.25,-0.52, 9.66, 11926
