External Temperature (C), Barometric Pressure (Pa), Acceleration X, Acceleration Y, Acceleration Z
25.09, 101659.39, 0.29,-0.61, 9.64, 6854
25.09, 101658.34, 0.23,-0.56, 9.62, 6866
25.09, 101658.34, 0.23,-0.57, 9.66, 6870
25.09, 101658.34, 0.25,-0.52, 9.71, 6875
25.09, 101658.34, 0.27,-0.56, 9.67, 6880
25.09, 101658.34, 0.19,-0.54, 9.62, 6885
25.09, 101658.34, 0.23,-0.50, 9.56, 6890
25.09, 101658.06, 0.27,-0.57, 9.41, 6895
25.09, 101658.06, 0.21,-0.67, 9.46, 6900
25.09, 101658.06, 0.25,-0.61, 9.50, 6905
25.09, 101658.06, 0.27,-0.59, 9.56, 6910
25.09, 101658.06, 0.25,-0.52, 9.60, 6915
25.09, 101658.06, 0.33,-0.52, 9.62, 6920
25.09, 101658.06, 0.23,-0.52, 9.54, 6925
25.09, 101655.53, 0.23,-0.54, 9.60, 6930
25.09, 101655.53, 0.17,-0.59, 9.66, 6935
25.09, 101655.53, 0.23,-0.54, 9.60, 6940
25.09, 101655.53, 0.27,-0.56, 9.60, 6945
25.09, 101655.53, 0.23,-0.52, 9.60, 6950
25.09, 101655.53, 0.19,-0.61, 9.64, 6955
25.09, 101655.53, 0.23,-0.56, 9.62, 6960
25.09, 101656.85, 0.19,-0.57, 9.69, 6965
25.09, 101656.85, 0.19,-0.57, 9.69, 6970
25.09, 101656.85, 0.15,-0.56, 9.69, 6975
25.09, 101656.85, 0.19,-0.57, 9.62, 6980
25.09, 101656.85, 0.21,-0.50, 9.64, 6985
25.09, 101656.85, 0.19,-0.50, 9.66, 6990
25.09, 101656.85, 0.17,-0.52, 9.60, 6995
25.09, 101653.62, 0.15,-0.52, 9.69, 7000
25.09, 101653.62, 0.29,-0.56, 9.67, 7005
25.09, 101653.62, 0.31,-0.56, 9.60, 7010
25.09, 101653.62, 0.25,-0.52, 9.41, 7015
25.09, 101653.62, 0.19,-0.52, 9.50, 7020
25.09, 101653.62, 0.17,-0.56, 9.60, 7025
25.09, 101653.62, 0.19,-0.54, 9.64, 7030
25.09, 101656.91, 0.19,-0.57, 9.64, 7035
25.09, 101656.91, 0.15,-0.54, 9.66, 7040
25.09, 101656.91, 0.25,-0.57, 9.60, 7045
25.09, 101656.91, 0.21,-0.52, 9.66, 7050
25.09, 101656.91, 0.25,-0.54, 9.60, 7055
25.09, 101656.91, 0.19,-0.54, 9.66, 7060
25.09, 101656.91, 0.21,-0.54, 9.66, 7065
25.09, 101658.06, 0.23,-0.57, 9.60, 7070
25.09, 101658.06, 0.25,-0.61, 9.62, 7075
25.09, 101658.06, 0.19,-0.59, 9.66, 7080
25.09, 101658.06, 0.23,-0.59, 9.66, 7085
25.09, 101658.06, 0.27,-0.54, 9.69, 7090
25.09, 101658.06, 0.21,-0.54, 9.67, 7095
25.09, 101658.06, 0.15,-0.48, 9.67, 7100
25.09, 101659.72, 0.21,-0.48, 9.62, 7105
25.09, 101659.72, 0.15,-0.65, 9.60, 7110
25.09, 101659.72, 0.21,-0.57, 9.62, 7115
25.09, 101659.72, 0.21,-0.46, 9.77, 7120
25.09, 101659.72, 0.23,-0.54, 9.67, 7125
25.09, 101659.72, 0.17,-0.56, 9.81, 7130
25.09, 101659.72, 0.19,-0.56, 9.81, 7135
25.09, 101656.09, 0.19,-0.54, 9.69, 7140
25.09, 101656.09, 0.23,-0.59, 9.69, 7145
25.09, 101656.09, 0.29,-0.57, 9.69, 7150
25.09, 101656.09, 0.21,-0.57, 9.64, 7155
25.09, 101656.09, 0.27,-0.57, 9.71, 7160
25.09, 101656.09, 0.21,-0.54, 9.66, 7165
25.09, 101656.09, 0.25,-0.54, 9.66, 7170
25.09, 101657.84, 0.23,-0.57, 9.62, 7175
25.09, 101657.84, 0.23,-0.57, 9.73, 7180
25.09, 101657.84, 0.27,-0.59, 9.60, 7185
25.09, 101657.84, 0.25,-0.59, 9.58, 7190
25.09, 101657.84, 0.21,-0.57, 9.69, 7195
25.09, 101657.84, 0.27,-0.56, 9.66, 7200
25.09, 101657.84, 0.21,-0.54, 9.66, 7205
25.09, 101657.84, 0.25,-0.59, 9.62, 7210
25.09, 101656.74, 0.19,-0.61, 9.64, 7215
25.09, 101656.74, 0.17,-0.59, 9.54, 7220
25.09, 101656.74, 0.27,-0.54, 9.66, 7225
25.09, 101656.74, 0.25,-0.61, 9.87, 7230
25.09, 101656.74, 0.27,-0.67, 9.48, 7235
25.09, 101656.74, 0.27,-0.56, 9.71, 7240
25.09, 101656.74, 0.17,-0.59, 9.66, 7245
25.09, 101654.45, 0.19,-0.44, 9.67, 7250
25.09, 101654.45, 0.17,-0.48, 9.75, 7255
25.09, 101654.45, 0.33,-0.50, 9.54, 7260
25.09, 101654.45, 0.27,-0.59, 9.75, 7265
25.09, 101654.45, 0.27,-0.61, 9.50, 7270
25.09, 101654.45, 0.40,-0.67, 9.52, 7275
25.09, 101654.45, 0.17,-0.63, 9.66, 7280
25.09, 101656.52, 0.23,-0.42, 9.54, 7285
25.09, 101656.52, 0.21,-0.57, 9.58, 7290
25.09, 101656.52, 0.21,-0.52, 9.67, 7295
25.09, 101656.52, 0.19,-0.63, 9.69, 7300
25.09, 101656.52, 0.17,-0.54, 9.62, 7305
25.09, 101656.52, 0.15,-0.56, 9.67, 7310
25.09, 101656.52, 0.29,-0.54, 9.67, 7315
25.09, 101656.03, 0.29,-0.59, 9.69, 7320
25.09, 101656.03, 0.29,-0.59, 9.60, 7325
25.09, 101656.03, 0.15,-0.65, 9.46, 7330
25.09, 101656.03, 0.27,-0.61, 9.64, 7335
25.09, 101656.03, 0.33,-0.67, 9.64, 7340
25.09, 101656.03, 0.23,-0.61, 9.71, 7345
25.09, 101656.03, 0.19,-0.48, 9.54, 7350
25.09, 101656.91, 0.25,-0.46, 9.54, 7355
25.09, 101656.91, 0.33,-0.50, 9.69, 7360
25.09, 101656.91, 0.23,-0.48, 9.62, 7368
25.09, 101656.91, 0.31,-0.52, 9.56, 7372
25.09, 101656.91, 0.25,-0.56, 9.66, 7377
25.09, 101656.91, 0.21,-0.59, 9.64, 7382
25.09, 101656.91, 0.25,-0.56, 9.64, 7387
25.09, 101657.75, 0.21,-0.63, 9.60, 7392
25.09, 101657.75, 0.21,-0.57, 9.60, 7397
25.09, 101657.75, 0.15,-0.50, 9.64, 7402
25.09, 101657.75, 0.17,-0.57, 9.66, 7407
25.09, 101657.75, 0.25,-0.57, 9.62, 7412
25.09, 101657.75, 0.15,-0.57, 9.66, 7417
25.09, 101657.75, 0.21,-0.56, 9.62, 7422
25.09, 101658.34, 0.17,-0.57, 9.46, 7427
25.09, 101658.34, 0.19,-0.57, 9.62, 7432
25.09, 101658.34, 0.19,-0.56, 9.71, 7437
25.09, 101658.34, 0.31,-0.54, 9.41, 7442
25.09, 101658.34, 0.31,-0.48, 9.62, 7447
25.09, 101658.34, 0.27,-0.57, 9.64, 7452
25.09, 101658.34, 0.21,-0.59, 9.64, 7457
25.09, 101657.57, 0.33,-0.63, 9.73, 7462
25.09, 101657.57, 0.25,-0.56, 9.77, 7467
25.09, 101657.57, 0.13,-0.57, 9.75, 7472
25.09, 101657.57, 0.17,-0.56, 9.69, 7477
25.09, 101657.57, 0.15,-0.50, 9.66, 7482
25.09, 101657.57, 0.23,-0.57, 9.60, 7487
25.09, 101657.57, 0.25,-0.56, 9.58, 7492
25.09, 101656.85, 0.25,-0.61, 9.60, 7497
25.09, 101656.85, 0.25,-0.56, 9.66, 7502
25.09, 101656.85, 0.25,-0.59, 9.67, 7507
25.09, 101656.85, 0.27,-0.57, 9.62, 7512
25.09, 101656.85, 0.23,-0.61, 9.64, 7517
25.09, 101656.85, 0.29,-0.63, 9.62, 7522
25.09, 101656.85, 0.23,-0.63, 9.75, 7527
25.09, 101654.28, 0.23,-0.61, 9.66, 7532
25.09, 101654.28, 0.29,-0.69, 9.58, 7537
25.09, 101654.28, 0.23,-0.46, 9.64, 7542
25.09, 101654.28, 0.21,-0.59, 9.66, 7547
25.09, 101654.28, 0.21,-0.50, 9.64, 7552
25.09, 101654.28, 0.25,-0.54, 9.69, 7557
25.09, 101654.28, 0.17,-0.57, 9.62, 7562
25.09, 101655.92, 0.23,-0.57, 9.69, 7567
25.09, 101655.92, 0.27,-0.57, 9.54, 7572
25.09, 101655.92, 0.27,-0.56, 9.56, 7577
25.09, 101655.92, 0.23,-0.52, 9.67, 7582
25.09, 101655.92, 0.13,-0.52, 9.67, 7587
25.09, 101655.92, 0.17,-0.40, 9.66, 7592
25.09, 101655.92, 0.27,-0.50, 9.58, 7597
25.09, 101656.58, 0.21,-0.54, 9.62, 7602
25.09, 101656.58, 0.21,-0.54, 9.67, 7607
25.09, 101656.58, 0.21,-0.54, 9.60, 7612
25.09, 101656.58, 0.21,-0.57, 9.69, 7617
25.09, 101656.58, 0.25,-0.59, 9.62, 7622
25.09, 101656.58, 0.25,-0.63, 9.73, 7627
25.09, 101656.58, 0.25,-0.61, 9.66, 7632
25.09, 101656.97, 0.21,-0.52, 9.62, 7637
25.09, 101656.97, 0.29,-0.56, 9.58, 7642
25.09, 101656.97, 0.31,-0.61, 9.54, 7647
25.09, 101656.97, 0.21,-0.56, 9.45, 7652
25.09, 101656.97, 0.23,-0.59, 9.60, 7657
25.09, 101656.97, 0.25,-0.56, 9.60, 7662
25.09, 101656.97, 0.27,-0.65, 9.73, 7667
25.09, 101657.73, 0.29,-0.65, 9.50, 7672
25.09, 101657.73, 0.25,-0.59, 9.66, 7677
25.09, 101657.73, 0.23,-0.50, 9.67, 7682
25.09, 101657.73, 0.17,-0.54, 9.69, 7687
25.09, 101657.73, 0.23,-0.56, 9.62, 7692
25.09, 101657.73, 0.23,-0.54, 9.66, 7697
25.09, 101657.73, 0.25,-0.56, 9.58, 7702
25.09, 101657.73, 0.19,-0.56, 9.58, 7707
25.09, 101656.74, 0.17,-0.50, 9.60, 7712
25.09, 101656.74, 0.23,-0.56, 9.66, 7717
25.09, 101656.74, 0.23,-0.61, 9.67, 7722
25.09, 101656.74, 0.21,-0.59, 9.66, 7727
25.09, 101656.74, 0.19,-0.56, 9.67, 7732
25.09, 101656.74, 0.25,-0.56, 9.64, 7737
25.09, 101656.74, 0.25,-0.50, 9.62, 7742
25.09, 101658.02, 0.27,-0.57, 9.62, 7747
25.09, 101658.02, 0.21,-0.50, 9.62, 7752
25.09, 101658.02, 0.23,-0.54, 9.67, 7757
25.09, 101658.02, 0.21,-0.57, 9.66, 7762
25.09, 101658.02, 0.21,-0.56, 9.58, 7767
25.09, 101658.02, 0.19,-0.48, 9.62, 7772
25.09, 101658.02, 0.27,-0.59, 9.56, 7777
25.09, 101655.70, 0.27,-0.57, 9.58, 7782
25.09, 101655.70, 0.27,-0.52, 9.54, 7787
25.09, 101655.70, 0.21,-0.48, 9.60, 7792
25.09, 101655.70, 0.31,-0.48, 9.64, 7797
25.09, 101655.70, 0.25,-0.52, 9.52, 7802
25.09, 101655.70, 0.21,-0.52, 9.67, 7807
25.09, 101655.70, 0.29,-0.56, 9.69, 7812
25.09, 101659.61, 0.23,-0.54, 9.56, 7817
25.09, 101659.61, 0.25,-0.50, 9.60, 7822
25.09, 101659.61, 0.23,-0.52, 9.66, 7827
25.09, 101659.61, 0.15,-0.52, 9.62, 7832
25.09, 101659.61, 0.23,-0.48, 9.62, 7837
25.09, 101659.61, 0.19,-0.50, 9.64, 7842
25.09, 101659.61, 0.21,-0.54, 9.67, 7847
25.09, 101658.34, 0.23,-0.57, 9.66, 7852
25.09, 101658.34, 0.17,-0.57, 9.56, 7857
25.09, 101658.34, 0.15,-0.56, 9.60, 7862
25.09, 101658.34, 0.23,-0.52, 9.64, 7870
25.09, 101658.34, 0.25,-0.56, 9.62, 7874
25.09, 101658.34, 0.23,-0.50, 9.66, 7879
25.09, 101658.34, 0.21,-0.59, 9.56, 7884
25.09, 101657.57, 0.29,-0.52, 9.60, 7889
25.09, 101657.57, 0.23,-0.54, 9.62, 7894
25.09, 101657.57, 0.27,-0.59, 9.66, 7899
25.09, 101657.57, 0.21,-0.59, 9.60, 7904
25.09, 101657.57, 0.19,-0.57, 9.62, 7909
25.09, 101657.57, 0.15,-0.57, 9.71, 7914
25.09, 101657.57, 0.13,-0.57, 9.62, 7919
25.09, 101658.06, 0.21,-0.52, 9.62, 7924
25.09, 101658.06, 0.21,-0.56, 9.60, 7929
25.09, 101658.06, 0.27,-0.56, 9.62, 7934
25.09, 101658.06, 0.21,-0.56, 9.66, 7939
25.09, 101658.06, 0.23,-0.52, 9.64, 7944
25.09, 101658.06, 0.25,-0.56, 9.66, 7949
25.09, 101658.06, 0.23,-0.59, 9.64, 7954
25.09, 101657.23, 0.27,-0.57, 9.64, 7959
25.09, 101657.23, 0.23,-0.57, 9.71, 7964
25.09, 101657.23, 0.19,-0.61, 9.60, 7969
25.09, 101657.23, 0.19,-0.56, 9.58, 7974
25.09, 101657.23, 0.21,-0.56, 9.69, 7979
25.09, 101657.23, 0.23,-0.61, 9.66, 7984
25.09, 101657.23, 0.23,-0.63, 9.77, 7989
25.09, 101657.95, 0.21,-0.57, 9.69, 7994
25.09, 101657.95, 0.17,-0.56, 9.62, 7999
25.09, 101657.95, 0.21,-0.59, 9.48, 8004
25.09, 101657.95, 0.21,-0.54, 9.58, 8009
25.09, 101657.95, 0.13,-0.52, 9.66, 8014
25.09, 101657.95, 0.15,-0.54, 9.66, 8019
25.09, 101657.95, 0.21,-0.57, 9.73, 8024
25.09, 101656.31, 0.27,-0.50, 9.67, 8029
25.09, 101656.31, 0.23,-0.57, 9.69, 8034
25.09, 101656.31, 0.19,-0.61, 9.62, 8039
25.09, 101656.31, 0.21,-0.57, 9.67, 8044
25.09, 101656.31, 0.21,-0.59, 9.67, 8049
25.09, 101656.31, 0.29,-0.61, 9.62, 8054
25.09, 101656.31, 0.31,-0.57, 9.58, 8059
25.09, 101657.46, 0.27,-0.63, 9.62, 8064
25.09, 101657.46, 0.25,-0.61, 9.64, 8069
25.09, 101657.46, 0.23,-0.61, 9.64, 8074
25.09, 101657.46, 0.21,-0.61, 9.56, 8079
25.09, 101657.46, 0.23,-0.61, 9.64, 8084
25.09, 101657.46, 0.25,-0.52, 9.58, 8089
25.09, 101657.46, 0.23,-0.44, 9.64, 8094
25.09, 101656.74, 0.19,-0.48, 9.67, 8099
25.09, 101656.74, 0.25,-0.59, 9.75, 8104
25.09, 101656.74, 0.19,-0.67, 9.81, 8109
25.09, 101656.74, 0.27,-0.59, 9.67, 8114
25.09, 101656.74, 0.17,-0.61, 9.73, 8119
25.09, 101656.74, 0.21,-0.61, 9.73, 8124
25.09, 101656.74, 0.08,-0.57, 9.69, 8129
25.09, 101657.57, 0.19,-0.54, 9.66, 8134
25.09, 101657.57, 0.25,-0.59, 9.69, 8139
25.09, 101657.57, 0.27,-0.61, 9.56, 8144
25.09, 101657.57, 0.25,-0.57, 9.52, 8149
25.09, 101657.57, 0.25,-0.59, 9.54, 8154
25.09, 101657.57, 0.19,-0.57, 9.67, 8159
25.09, 101657.57, 0.29,-0.54, 9.67, 8164
25.09, 101654.77, 0.23,-0.57, 9.66, 8169
25.09, 101654.77, 0.33,-0.57, 9.62, 8174
25.09, 101654.77, 0.29,-0.52, 9.62, 8179
25.09, 101654.77, 0.25,-0.59, 9.60, 8184
25.09, 101654.77, 0.27,-0.57, 9.60, 8189
25.09, 101654.77, 0.21,-0.61, 9.64, 8194
25.09, 101654.77, 0.25,-0.63, 9.60, 8199
25.09, 101654.77, 0.19,-0.56, 9.69, 8204
25.09, 101656.25, 0.25,-0.54, 9.62, 8209
25.09, 101656.25, 0.31,-0.59, 9.71, 8214
25.09, 101656.25, 0.29,-0.54, 9.75, 8219
25.09, 101656.25, 0.27,-0.56, 9.67, 8224
25.09, 101656.25, 0.25,-0.61, 9.60, 8229
25.09, 101656.25, 0.31,-0.52, 9.62, 8234
25.09, 101656.25, 0.33,-0.52, 9.60, 8239
25.09, 101655.48, 0.29,-0.57, 9.66, 8244
25.09, 101655.48, 0.25,-0.57, 9.54, 8249
25.09, 101655.48, 0.21,-0.61, 9.66, 8254
25.09, 101655.48, 0.23,-0.54, 9.67, 8259
25.09, 101655.48, 0.21,-0.59, 9.67, 8264
25.09, 101655.48, 0.25,-0.61, 9.69, 8269
25.09, 101655.48, 0.29,-0.54, 9.73, 8274
25.09, 101657.36, 0.27,-0.56, 9.66, 8279
25.09, 101657.36, 0.27,-0.57, 9.58, 8284
25.09, 101657.36, 0.19,-0.61, 9.64, 8289
25.09, 101657.36, 0.25,-0.52, 9.64, 8294
25.09, 101657.36, 0.23,-0.52, 9.73, 8299
25.09, 101657.36, 0.19,-0.56, 9.67, 8304
25.09, 101657.36, 0.27,-0.56, 9.66, 8309
25.09, 101656.91, 0.33,-0.59, 9.71, 8314
25.09, 101656.91, 0.15,-0.59, 9.62, 8319
25.09, 101656.91, 0.21,-0.44, 9.62, 8324
25.09, 101656.91, 0.25,-0.61, 9.60, 8329
25.09, 101656.91, 0.25,-0.52, 9.64, 8334
25.09, 101656.91, 0.33,-0.59, 9.75, 8339
25.09, 101656.91, 0.31,-0.52, 9.58, 8344
25.09, 101655.27, 0.29,-0.54, 9.58, 8349
25.09, 101655.27, 0.19,-0.56, 9.54, 8354
25.09, 101655.27, 0.21,-0.50, 9.58, 8359
25.09, 101655.27, 0.13,-0.56, 9.60, 8364
25.09, 101655.27, 0.21,-0.52, 9.66, 8372
25.09, 101655.27, 0.21,-0.57, 9.73, 8376
25.09, 101655.27, 0.21,-0.59, 9.60, 8381
25.09, 101655.81, 0.17,-0.56, 9.64, 8386
25.09, 101655.81, 0.17,-0.56, 9.67, 8391
25.09, 101655.81, 0.19,-0.56, 9.71, 8396
25.09, 101655.81, 0.23,-0.54, 9.66, 8401
25.09, 101655.81, 0.33,-0.57, 9.58, 8406
25.09, 101655.81, 0.33,-0.59, 9.60, 8411
25.09, 101655.81, 0.27,-0.56, 9.66, 8416
25.09, 101654.44, 0.27,-0.56, 9.64, 8421
25.09, 101654.44, 0.19,-0.57, 9.67, 8426
25.09, 101654.44, 0.21,-0.54, 9.77, 8431
25.09, 101654.44, 0.27,-0.57, 9.73, 8436
25.09, 101654.44, 0.21,-0.57, 9.52, 8441
25.09, 101654.44, 0.25,-0.56, 9.35, 8446
25.09, 101654.44, 0.27,-0.42, 9.50, 8451
25.09, 101659.17, 0.27,-0.44, 9.56, 8456
25.09, 101659.17, 0.23,-0.46, 9.64, 8461
25.09, 101659.17, 0.19,-0.54, 9.54, 8466
25.09, 101659.17, 0.23,-0.57, 9.54, 8471
25.09, 101659.17, 0.19,-0.63, 9.54, 8476
25.09, 101659.17, 0.23,-0.56, 9.64, 8481
25.09, 101659.17, 0.23,-0.59, 9.69, 8486
25.09, 101656.64, 0.21,-0.52, 9.66, 8491
25.09, 101656.64, 0.17,-0.57, 9.67, 8496
25.09, 101656.64, 0.21,-0.52, 9.67, 8501
25.09, 101656.64, 0.27,-0.59, 9.62, 8506
25.09, 101656.64, 0.25,-0.63, 9.67, 8511
25.09, 101656.64, 0.25,-0.52, 9.67, 8516
25.09, 101656.64, 0.21,-0.59, 9.66, 8521
25.09, 101656.74, 0.31,-0.59, 9.54, 8526
25.09, 101656.74, 0.19,-0.59, 9.66, 8531
25.09, 101656.74, 0.29,-0.67, 9.56, 8536
25.09, 101656.74, 0.27,-0.50, 9.56, 8541
25.09, 101656.74, 0.21,-0.65, 9.62, 8546
25.09, 101656.74, 0.29,-0.33, 9.48, 8551
25.09, 101656.74, 0.33,-0.54, 9.66, 8556
25.09, 101656.91, 0.29,-0.52, 9.67, 8561
25.09, 101656.91, 0.33,-0.56, 9.64, 8566
25.09, 101656.91, 0.23,-0.57, 9.62, 8571
25.09, 101656.91, 0.23,-0.59, 9.62, 8576
25.09, 101656.91, 0.23,-0.56, 9.73, 8581
25.09, 101656.91, 0.25,-0.56, 9.60, 8586
25.09, 101656.91, 0.21,-0.56, 9.62, 8591
25.09, 101657.62, 0.27,-0.54, 9.62, 8596
25.09, 101657.62, 0.27,-0.57, 9.67, 8601
25.09, 101657.62, 0.23,-0.52, 9.66, 8606
25.09, 101657.62, 0.13,-0.52, 9.64, 8611
25.09, 101657.62, 0.17,-0.57, 9.64, 8616
25.09, 101657.62, 0.19,-0.57, 9.67, 8621
25.09, 101657.62, 0.23,-0.57, 9.67, 8626
25.09, 101655.70, 0.29,-0.56, 9.67, 8631
25.09, 101655.70, 0.25,-0.57, 9.60, 8636
25.09, 101655.70, 0.33,-0.54, 9.69, 8641
25.09, 101655.70, 0.27,-0.56, 9.62, 8646
25.09, 101655.70, 0.19,-0.52, 9.66, 8651
25.09, 101655.70, 0.25,-0.56, 9.90, 8656
25.09, 101655.70, 0.25,-0.54, 9.52, 8661
25.09, 101655.04, 0.25,-0.63, 9.67, 8666
25.09, 101655.04, 0.27,-0.56, 9.64, 8671
25.09, 101655.04, 0.27,-0.52, 9.62, 8676
25.09, 101655.04, 0.19,-0.54, 9.64, 8681
25.09, 101655.04, 0.10,-0.61, 9.64, 8686
25.09, 101655.04, 0.19,-0.54, 9.62, 8691
25.09, 101655.04, 0.17,-0.57, 9.52, 8696
25.09, 101654.38, 0.17,-0.50, 9.64, 8701
25.09, 101656.14, 0.17,-0.57, 9.58, 8706
25.09, 101656.14, 0.23,-0.57, 9.64, 8711
25.09, 101656.14, 0.21,-0.56, 9.58, 8716
25.09, 101656.14, 0.23,-0.54, 9.62, 8721
25.09, 101656.14, 0.21,-0.54, 9.64, 8726
25.09, 101656.14, 0.19,-0.56, 9.66, 8731
25.09, 101656.14, 0.23,-0.57, 9.62, 8736
25.09, 101658.67, 0.25,-0.59, 9.64, 8741
25.09, 101658.67, 0.25,-0.56, 9.67, 8746
25.09, 101658.67, 0.23,-0.57, 9.66, 8751
25.09, 101658.67, 0.25,-0.52, 9.60, 8756
25.09, 101658.67, 0.33,-0.56, 9.66, 8761
25.09, 101658.67, 0.27,-0.65, 9.56, 8766
25.09, 101658.67, 0.27,-0.67, 9.62, 8771
25.09, 101658.51, 0.27,-0.54, 9.56, 8776
25.09, 101658.51, 0.25,-0.52, 9.64, 8781
25.09, 101658.51, 0.27,-0.57, 9.60, 8786
25.09, 101658.51, 0.19,-0.59, 9.60, 8791
25.09, 101658.51, 0.27,-0.63, 9.64, 8796
25.09, 101658.51, 0.34,-0.57, 9.58, 8801
25.09, 101658.51, 0.23,-0.54, 9.60, 8806
25.09, 101658.67, 0.19,-0.57, 9.66, 8811
25.09, 101658.67, 0.15,-0.59, 9.64, 8816
25.09, 101658.67, 0.21,-0.57, 9.58, 8821
25.09, 101658.67, 0.19,-0.61, 9.67, 8826
25.09, 101658.67, 0.23,-0.59, 9.64, 8831
25.09, 101658.67, 0.15,-0.57, 9.62, 8836
25.09, 101658.67, 0.23,-0.54, 9.64, 8841
25.09, 101656.58, 0.19,-0.56, 9.62, 8846
25.09, 101656.58, 0.27,-0.56, 9.62, 8851
25.09, 101656.58, 0.27,-0.59, 9.64, 8856
25.09, 101656.58, 0.31,-0.54, 9.62, 8861
25.09, 101656.58, 0.23,-0.54, 9.58, 8866
25.09, 101656.58, 0.29,-0.59, 9.92, 8873
25.09, 101656.58, 0.27,-0.59, 9.94, 8878
25.09, 101656.97, 0.21,-0.57, 9.64, 8883
25.09, 101656.97, 0.25,-0.57, 9.71, 8888
25.09, 101656.97, 0.21,-0.54, 9.67, 8893
25.09, 101656.97, 0.19,-0.59, 9.60, 8898
25.09, 101656.97, 0.27,-0.59, 9.67, 8903
25.09, 101656.97, 0.23,-0.73, 9.66, 8908
25.09, 101656.97, 0.23,-0.63, 9.58, 8913
25.09, 101659.83, 0.15,-0.65, 9.60, 8918
25.09, 101659.83, 0.19,-0.61, 9.62, 8923
25.09, 101659.83, 0.15,-0.52, 9.56, 8928
25.09, 101659.83, 0.25,-0.56, 9.62, 8933
25.09, 101659.83, 0.23,-0.56, 9.64, 8938
25.09, 101659.83, 0.25,-0.65, 9.67, 8943
25.09, 101659.83, 0.21,-0.59, 9.66, 8948
25.09, 101656.70, 0.23,-0.54, 9.60, 8953
25.09, 101656.70, 0.23,-0.56, 9.64, 8958
25.09, 101656.70, 0.25,-0.50, 9.60, 8963
25.09, 101656.70, 0.31,-0.50, 9.67, 8968
25.09, 101656.70, 0.23,-0.57, 9.62, 8973
25.09, 101656.70, 0.23,-0.63, 9.71, 8978
25.09, 101656.70, 0.19,-0.61, 9.71, 8983
25.09, 101659.27, 0.21,-0.61, 9.48, 8988
25.09, 101659.27, 0.25,-0.61, 9.58, 8993
25.09, 101659.27, 0.25,-0.56, 9.62, 8998
25.09, 101659.27, 0.25,-0.56, 9.56, 9003
25.09, 101659.27, 0.21,-0.56, 9.56, 9008
25.09, 101659.27, 0.21,-0.56, 9.56, 9013
25.09, 101659.27, 0.27,-0.57, 9.67, 9018
25.09, 101656.03, 0.25,-0.54, 9.67, 9023
25.09, 101656.03, 0.17,-0.54, 9.60, 9028
25.09, 101656.03, 0.19,-0.50, 9.71, 9033
25.09, 101656.03, 0.25,-0.57, 9.60, 9038
25.09, 101656.03, 0.23,-0.56, 9.69, 9043
25.09, 101656.03, 0.25,-0.54, 9.64, 9048
25.09, 101656.03, 0.19,-0.56, 9.64, 9053
25.09, 101654.27, 0.25,-0.57, 9.67, 9058
25.09, 101654.27, 0.21,-0.56, 9.66, 9063
25.09, 101654.27, 0.25,-0.57, 9.66, 9068
25.09, 101654.27, 0.27,-0.56, 9.62, 9073
25.09, 101654.27, 0.23,-0.61, 9.64, 9078
25.09, 101654.27, 0.19,-0.63, 9.62, 9083
25.09, 101654.27, 0.13,-0.61, 9.66, 9088
25.09, 101655.09, 0.17,-0.52, 9.60, 9093
25.09, 101655.09, 0.21,-0.57, 9.69, 9098
25.09, 101655.09, 0.23,-0.56, 9.54, 9103
25.09, 101655.09, 0.23,-0.57, 9.73, 9108
25.09, 101655.09, 0.27,-0.50, 9.54, 9113
25.09, 101655.09, 0.23,-0.52, 9.58, 9118
25.09, 101655.09, 0.21,-0.57, 9.64, 9123
25.09, 101654.77, 0.19,-0.59, 9.66, 9128
25.09, 101654.77, 0.19,-0.56, 9.67, 9133
25.09, 101654.77, 0.17,-0.61, 9.62, 9138
25.09, 101654.77, 0.17,-0.56, 9.56, 9143
25.09, 101654.77, 0.25,-0.59, 9.69, 9148
25.09, 101654.77, 0.27,-0.57, 9.66, 9153
25.09, 101654.77, 0.17,-0.59, 9.66, 9158
25.09, 101652.78, 0.15,-0.59, 9.62, 9163
25.09, 101652.78, 0.23,-0.54, 9.62, 9168
25.09, 101652.78, 0.19,-0.56, 9.66, 9173
25.09, 101652.78, 0.23,-0.52, 9.58, 9178
25.09, 101652.78, 0.21,-0.56, 9.62, 9183
25.09, 101652.78, 0.19,-0.56, 9.60, 9188
25.09, 101652.78, 0.23,-0.54, 9.64, 9193
25.09, 101653.11, 0.23,-0.57, 9.62, 9198
25.09, 101653.11, 0.25,-0.52, 9.60, 9203
25.09, 101653.11, 0.23,-0.50, 9.77, 9208
25.09, 101653.11, 0.15,-0.59, 9.71, 9213
25.09, 101653.11, 0.25,-0.52, 9.73, 9218
25.09, 101653.11, 0.23,-0.50, 9.48, 9223
25.09, 101653.11, 0.21,-0.50, 9.67, 9228
25.09, 101653.11, 0.21,-0.59, 9.58, 9233
25.09, 101659.27, 0.19,-0.61, 9.46, 9238
25.09, 101659.27, 0.23,-0.57, 9.64, 9243
25.09, 101659.27, 0.25,-0.52, 9.64, 9248
25.09, 101659.27, 0.27,-0.54, 9.66, 9253
25.09, 101659.27, 0.17,-0.57, 9.56, 9258
25.09, 101659.27, 0.31,-0.63, 9.67, 9263
25.09, 101659.27, 0.23,-0.63, 9.71, 9268
25.09, 101658.34, 0.23,-0.57, 9.69, 9273
25.09, 101658.34, 0.23,-0.54, 9.56, 9278
25.09, 101658.34, 0.25,-0.52, 9.66, 9283
25.09, 101658.34, 0.23,-0.57, 9.66, 9288
25.09, 101658.34, 0.25,-0.57, 9.62, 9293
25.09, 101658.34, 0.25,-0.56, 9.66, 9298
25.09, 101658.34, 0.23,-0.59, 9.67, 9303
25.09, 101657.52, 0.25,-0.59, 9.66, 9308
25.09, 101657.52, 0.25,-0.54, 9.67, 9313
25.09, 101657.52, 0.25,-0.57, 9.66, 9318
25.09, 101657.52, 0.27,-0.50, 9.75, 9323
25.09, 101657.52, 0.31,-0.48, 9.69, 9328
25.09, 101657.52, 0.23,-0.56, 9.64, 9333
25.09, 101657.52, 0.13,-0.61, 9.58, 9338
25.09, 101658.02, 0.19,-0.61, 9.46, 9343
25.09, 101658.02, 0.17,-0.57, 9.56, 9348
25.09, 101658.02, 0.21,-0.57, 9.58, 9353
25.09, 101658.02, 0.29,-0.54, 9.46, 9358
25.09, 101658.02, 0.27,-0.50, 9.52, 9363
25.09, 101658.02, 0.29,-0.52, 9.60, 9368
25.09, 101656.74, 0.23,-0.56, 9.64, 9376
25.09, 101656.74, 0.21,-0.54, 9.64, 9380
25.09, 101656.74, 0.25,-0.59, 9.60, 9385
25.09, 101656.74, 0.19,-0.54, 9.60, 9390
25.09, 101656.74, 0.21,-0.57, 9.62, 9395
25.09, 101656.74, 0.27,-0.61, 9.64, 9400
25.09, 101656.74, 0.29,-0.56, 9.62, 9405
25.09, 101656.74, 0.23,-0.56, 9.67, 9410
25.09, 101658.34, 0.25,-0.54, 9.60, 9415
25.09, 101658.34, 0.21,-0.56, 9.60, 9420
25.09, 101658.34, 0.29,-0.61, 9.62, 9425
25.09, 101658.34, 0.25,-0.59, 9.60, 9430
25.09, 101658.34, 0.27,-0.57, 9.64, 9435
25.09, 101658.34, 0.27,-0.65, 9.66, 9440
25.09, 101658.34, 0.15,-0.63, 9.64, 9445
25.09, 101656.97, 0.23,-0.61, 9.64, 9450
25.09, 101656.97, 0.25,-0.57, 9.50, 9455
25.09, 101656.97, 0.25,-0.54, 9.54, 9460
25.09, 101656.97, 0.27,-0.57, 9.52, 9465
25.09, 101656.97, 0.25,-0.56, 9.67, 9470
25.09, 101656.97, 0.25,-0.61, 9.77, 9475
25.09, 101656.97, 0.29,-0.63, 9.66, 9480
25.09, 101658.11, 0.25,-0.56, 9.62, 9485
25.09, 101658.11, 0.21,-0.57, 9.60, 9490
25.09, 101658.11, 0.31,-0.57, 9.58, 9495
25.09, 101658.11, 0.27,-0.54, 9.62, 9500
25.09, 101658.11, 0.25,-0.50, 9.64, 9505
25.09, 101658.11, 0.27,-0.50, 9.64, 9510
25.09, 101658.11, 0.17,-0.56, 9.67, 9515
25.09, 101656.64, 0.23,-0.57, 9.69, 9520
25.09, 101656.64, 0.25,-0.56, 9.67, 9525
25.09, 101656.64, 0.31,-0.54, 9.66, 9530
25.09, 101656.64, 0.19,-0.63, 9.56, 9535
25.09, 101656.64, 0.17,-0.56, 9.62, 9540
25.09, 101656.64, 0.23,-0.57, 9.75, 9545
25.09, 101656.64, 0.31,-0.56, 9.71, 9550
25.09, 101656.70, 0.25,-0.48, 9.73, 9555
25.09, 101656.70, 0.19,-0.59, 9.69, 9560
25.09, 101656.70, 0.17,-0.57, 9.50, 9565
25.09, 101656.70, 0.11,-0.57, 9.50, 9570
25.09, 101656.70, 0.19,-0.59, 9.56, 9575
25.09, 101656.70, 0.27,-0.57, 9.62, 9580
25.09, 101656.70, 0.25,-0.59, 9.54, 9585
25.09, 101654.27, 0.27,-0.61, 9.62, 9590
25.09, 101654.27, 0.34,-0.61, 9.66, 9595
25.09, 101654.27, 0.25,-0.61, 9.69, 9600
25.09, 101654.27, 0.33,-0.59, 9.66, 9605
25.09, 101654.27, 0.21,-0.54, 9.64, 9610
25.09, 101654.27, 0.25,-0.56, 9.64, 9615
25.09, 101654.27, 0.21,-0.57, 9.62, 9620
25.09, 101656.86, 0.29,-0.52, 9.62, 9625
25.09, 101656.86, 0.31,-0.48, 9.62, 9630
25.09, 101656.86, 0.25,-0.54, 9.67, 9635
25.09, 101656.86, 0.15,-0.54, 9.64, 9640
25.09, 101656.86, 0.17,-0.57, 9.62, 9645
25.09, 101656.86, 0.19,-0.57, 9.69, 9650
25.09, 101656.86, 0.23,-0.56, 9.54, 9655
25.09, 101656.91, 0.19,-0.54, 9.60, 9660
25.09, 101656.91, 0.23,-0.59, 9.62, 9665
25.09, 101656.91, 0.17,-0.52, 9.58, 9670
25.09, 101656.91, 0.21,-0.54, 9.52, 9675
25.09, 101656.91, 0.15,-0.56, 9.62, 9680
25.09, 101656.91, 0.29,-0.56, 9.69, 9685
25.09, 101656.91, 0.29,-0.52, 9.67, 9690
25.09, 101656.53, 0.31,-0.54, 9.60, 9695
25.09, 101656.53, 0.21,-0.50, 9.64, 9700
25.09, 101656.53, 0.21,-0.57, 9.73, 9705
25.09, 101656.53, 0.27,-0.57, 9.60, 9710
25.09, 101656.53, 0.27,-0.56, 9.58, 9715
25.09, 101656.53, 0.25,-0.54, 9.58, 9720
25.09, 101656.53, 0.23,-0.57, 9.66, 9725
25.09, 101656.53, 0.23,-0.56, 9.64, 9730
25.09, 101657.30, 0.21,-0.61, 9.66, 9735
25.09, 101657.30, 0.21,-0.59, 9.66, 9740
25.09, 101657.30, 0.27,-0.57, 9.60, 9745
25.09, 101657.30, 0.31,-0.57, 9.66, 9750
25.09, 101657.30, 0.27,-0.54, 9.66, 9755
25.09, 101657.30, 0.23,-0.54, 9.66, 9760
25.09, 101657.30, 0.25,-0.63, 9.60, 9765
25.09, 101656.14, 0.25,-0.61, 9.58, 9770
25.09, 101656.14, 0.25,-0.61, 9.75, 9775
25.09, 101656.14, 0.27,-0.54, 9.41, 9780
25.09, 101656.14, 0.15,-0.54, 9.87, 9785
25.09, 101656.14, 0.19,-0.56, 9.83, 9790
25.09, 101656.14, 0.25,-0.54, 9.73, 9795
25.09, 101656.14, 0.23,-0.57, 9.66, 9800
25.09, 101657.85, 0.27,-0.57, 9.66, 9805
25.09, 101657.85, 0.23,-0.54, 9.66, 9810
25.09, 101657.85, 0.29,-0.48, 9.69, 9815
25.09, 101657.85, 0.21,-0.59, 9.64, 9820
25.09, 101657.85, 0.29,-0.57, 9.69, 9825
25.09, 101657.85, 0.21,-0.57, 9.69, 9830
25.09, 101657.85, 0.21,-0.56, 9.64, 9835
25.09, 101656.53, 0.25,-0.50, 9.71, 9840
25.09, 101656.53, 0.27,-0.57, 9.60, 9845
25.09, 101656.53, 0.27,-0.63, 9.58, 9850
25.09, 101656.53, 0.21,-0.56, 9.60, 9855
25.09, 101656.53, 0.23,-0.61, 9.66, 9860
25.09, 101656.53, 0.21,-0.59, 9.62, 9865
25.09, 101656.53, 0.25,-0.56, 9.56, 9870
25.09, 101655.65, 0.21,-0.52, 9.67, 9878
25.09, 101655.65, 0.19,-0.54, 9.58, 9882
25.09, 101655.65, 0.21,-0.56, 9.71, 9887
25.09, 101655.65, 0.13,-0.54, 9.71, 9892
25.09, 101655.65, 0.23,-0.52, 9.66, 9897
25.09, 101655.65, 0.25,-0.50, 9.62, 9902
25.09, 101655.65, 0.27,-0.50, 9.56, 9907
25.09, 101656.20, 0.23,-0.57, 9.62, 9912
25.09, 101656.20, 0.25,-0.57, 9.66, 9917
25.09, 101656.20, 0.23,-0.57, 9.62, 9922
25.09, 101656.20, 0.25,-0.52, 9.66, 9927
25.09, 101656.20, 0.25,-0.52, 9.64, 9932
25.09, 101656.20, 0.27,-0.54, 9.62, 9937
25.09, 101656.20, 0.27,-0.63, 9.60, 9942
25.09, 101656.47, 0.23,-0.63, 9.73, 9947
25.09, 101656.47, 0.15,-0.56, 9.69, 9952
25.09, 101656.47, 0.25,-0.59, 9.67, 9957
25.09, 101656.47, 0.23,-0.59, 9.66, 9962
25.09, 101656.47, 0.19,-0.56, 9.62, 9967
25.09, 101656.47, 0.23,-0.56, 9.71, 9972
25.09, 101656.47, 0.25,-0.57, 9.71, 9977
25.09, 101657.19, 0.25,-0.59, 9.73, 9982
25.09, 101657.19, 0.25,-0.54, 9.54, 9987
25.09, 101657.19, 0.21,-0.52, 9.64, 9992
25.09, 101657.19, 0.25,-0.54, 9.54, 9997
25.09, 101657.19, 0.25,-0.59, 9.73, 10002
25.09, 101657.19, 0.27,-0.50, 9.69, 10007
25.09, 101657.19, 0.33,-0.54, 9.58, 10012
25.09, 101656.64, 0.25,-0.57, 9.60, 10017
25.09, 101656.64, 0.25,-0.65, 9.67, 10022
25.09, 101656.64, 0.23,-0.61, 9.64, 10027
25.09, 101656.64, 0.19,-0.59, 9.58, 10032
25.09, 101656.64, 0.13,-0.50, 9.56, 10037
25.09, 101656.64, 0.21,-0.57, 9.62, 10042
25.09, 101656.64, 0.23,-0.61, 9.66, 10047
25.09, 101654.77, 0.17,-0.52, 9.64, 10052
25.09, 101654.77, 0.25,-0.54, 9.69, 10057
25.09, 101654.77, 0.21,-0.56, 9.64, 10062
25.09, 101654.77, 0.25,-0.57, 9.64, 10067
25.09, 101654.77, 0.25,-0.59, 9.66, 10072
25.09, 101654.77, 0.21,-0.61, 9.66, 10077
25.09, 101654.77, 0.27,-0.59, 9.67, 10082
25.09, 101655.42, 0.21,-0.63, 9.64, 10087
25.09, 101655.42, 0.23,-0.56, 9.60, 10092
25.09, 101655.42, 0.25,-0.52, 9.54, 10097
25.09, 101655.42, 0.23,-0.57, 9.81, 10102
25.09, 101655.42, 0.19,-0.59, 9.81, 10107
25.09, 101655.42, 0.25,-0.56, 9.62, 10112
25.09, 101655.42, 0.29,-0.54, 9.56, 10117
25.09, 101656.41, 0.29,-0.52, 9.60, 10122
25.09, 101656.41, 0.29,-0.59, 9.64, 10127
25.09, 101656.41, 0.27,-0.59, 9.62, 10132
25.09, 101656.41, 0.31,-0.57, 9.58, 10137
25.09, 101656.41, 0.21,-0.56, 9.67, 10142
25.09, 101656.41, 0.21,-0.56, 9.69, 10147
25.09, 101656.41, 0.27,-0.57, 9.66, 10152
25.09, 101657.12, 0.21,-0.48, 9.69, 10157
25.09, 101657.12, 0.23,-0.52, 9.67, 10162
25.09, 101657.12, 0.21,-0.57, 9.67, 10167
25.09, 101657.12, 0.25,-0.63, 9.64, 10172
25.09, 101657.12, 0.25,-0.61, 9.67, 10177
25.09, 101657.12, 0.23,-0.56, 9.62, 10182
25.09, 101657.12, 0.21,-0.59, 9.52, 10187
25.09, 101658.18, 0.17,-0.59, 9.64, 10192
25.09, 101658.18, 0.29,-0.61, 9.64, 10197
25.09, 101658.18, 0.25,-0.52, 9.71, 10202
25.09, 101658.18, 0.25,-0.54, 9.75, 10207
25.09, 101658.18, 0.31,-0.61, 9.62, 10212
25.09, 101658.18, 0.27,-0.56, 9.58, 10217
25.09, 101658.18, 0.25,-0.52, 9.54, 10222
25.09, 101657.85, 0.27,-0.52, 9.60, 10227
25.09, 101657.85, 0.25,-0.48, 9.66, 10232
25.09, 101657.85, 0.23,-0.50, 9.64, 10237
25.09, 101657.85, 0.21,-0.65, 9.58, 10242
25.09, 101657.85, 0.23,-0.61, 9.60, 10247
25.09, 101657.85, 0.19,-0.59, 9.71, 10252
25.09, 101657.85, 0.21,-0.57, 9.64, 10257
25.09, 101657.85, 0.21,-0.52, 9.64, 10262
25.09, 101656.80, 0.27,-0.52, 9.62, 10267
25.09, 101656.80, 0.19,-0.50, 9.67, 10272
25.09, 101656.80, 0.17,-0.61, 9.60, 10277
25.09, 101656.80, 0.23,-0.59, 9.62, 10282
25.09, 101656.80, 0.25,-0.61, 9.66, 10287
25.09, 101656.80, 0.21,-0.61, 9.56, 10292
25.09, 101656.80, 0.23,-0.57, 9.67, 10297
25.09, 101656.86, 0.29,-0.57, 9.62, 10302
25.09, 101656.86, 0.31,-0.56, 9.66, 10307
25.09, 101656.86, 0.29,-0.54, 9.71, 10312
25.09, 101656.86, 0.23,-0.69, 9.73, 10317
25.09, 101656.86, 0.21,-0.61, 9.66, 10322
25.09, 101656.86, 0.21,-0.61, 9.71, 10327
25.09, 101656.86, 0.29,-0.56, 9.69, 10332
25.09, 101654.98, 0.27,-0.61, 9.71, 10337
25.09, 101654.98, 0.21,-0.50, 9.67, 10342
25.09, 101654.98, 0.25,-0.56, 9.75, 10347
25.09, 101654.98, 0.23,-0.54, 9.79, 10352
25.09, 101654.98, 0.21,-0.59, 9.73, 10357
25.09, 101654.98, 0.29,-0.59, 9.58, 10362
25.09, 101654.98, 0.23,-0.61, 9.60, 10367
25.09, 101656.36, 0.29,-0.57, 9.60, 10372
25.09, 101656.36, 0.27,-0.57, 9.64, 10380
25.09, 101656.36, 0.25,-0.54, 9.73, 10384
25.09, 101656.36, 0.27,-0.54, 9.66, 10389
25.09, 101656.36, 0.17,-0.63, 9.62, 10394
25.09, 101656.36, 0.23,-0.59, 9.81, 10399
25.09, 101656.36, 0.27,-0.52, 9.92, 10404
25.09, 101656.64, 0.27,-0.52, 9.67, 10409
25.09, 101656.64, 0.29,-0.54, 9.48, 10414
25.09, 101656.64, 0.29,-0.56, 9.56, 10419
25.09, 101656.64, 0.34,-0.57, 9.54, 10424
25.09, 101656.64, 0.17,-0.50, 9.69, 10429
25.09, 101656.64, 0.15,-0.59, 9.60, 10434
25.09, 101656.64, 0.13,-0.52, 9.60, 10439
25.09, 101656.53, 0.13,-0.50, 9.58, 10444
25.09, 101656.53, 0.19,-0.63, 9.58, 10449
25.09, 101656.53, 0.17,-0.59, 9.62, 10454
25.09, 101656.53, 0.17,-0.67, 9.58, 10459
25.09, 101656.53, 0.11,-0.61, 9.64, 10464
25.09, 101656.53, 0.15,-0.59, 9.69, 10469
25.09, 101656.53, 0.17,-0.52, 9.64, 10474
25.09, 101653.61, 0.15,-0.52, 9.54, 10479
25.09, 101653.61, 0.21,-0.54, 9.58, 10484
25.09, 101653.61, 0.15,-0.59, 9.54, 10489
25.09, 101653.61, 0.25,-0.59, 9.66, 10494
25.09, 101653.61, 0.29,-0.56, 9.69, 10499
25.09, 101653.61, 0.19,-0.61, 9.58, 10504
25.09, 101653.61, 0.21,-0.63, 9.77, 10509
25.09, 101656.64, 0.27,-0.65, 9.83, 10514
25.09, 101656.64, 0.27,-0.61, 9.69, 10519
25.09, 101656.64, 0.25,-0.50, 9.64, 10524
25.09, 101656.64, 0.34,-0.57, 9.60, 10529
25.09, 101656.64, 0.40,-0.63, 9.62, 10534
25.09, 101656.64, 0.36,-0.63, 9.64, 10539
25.09, 101656.64, 0.33,-0.46, 9.60, 10544
25.09, 101655.75, 0.27,-0.57, 9.62, 10549
25.09, 101655.75, 0.25,-0.65, 9.64, 10554
25.09, 101655.75, 0.27,-0.61, 9.69, 10559
25.09, 101655.75, 0.19,-0.57, 9.56, 10564
25.09, 101655.75, 0.19,-0.61, 9.60, 10569
25.09, 101655.75, 0.23,-0.61, 9.62, 10574
25.09, 101655.75, 0.25,-0.56, 9.64, 10579
25.09, 101655.65, 0.21,-0.56, 9.64, 10584
25.09, 101655.65, 0.15,-0.56, 9.64, 10589
25.09, 101655.65, 0.13,-0.52, 9.60, 10594
25.09, 101655.65, 0.23,-0.59, 9.62, 10599
25.09, 101655.65, 0.23,-0.57, 9.66, 10604
25.09, 101655.65, 0.21,-0.54, 9.62, 10609
25.09, 101655.65, 0.23,-0.67, 9.58, 10614
25.09, 101654.77, 0.25,-0.44, 9.58, 10619
25.09, 101654.77, 0.33,-0.56, 9.58, 10624
25.09, 101654.77, 0.31,-0.54, 9.50, 10629
25.09, 101654.77, 0.25,-0.56, 9.43, 10634
25.09, 101654.77, 0.25,-0.52, 9.50, 10639
25.09, 101654.77, 0.23,-0.57, 9.64, 10644
25.09, 101654.77, 0.25,-0.56, 9.58, 10649
25.09, 101656.97, 0.23,-0.48, 9.66, 10654
25.09, 101656.97, 0.21,-0.59, 9.66, 10659
25.09, 101656.97, 0.27,-0.61, 9.67, 10664
25.09, 101656.97, 0.25,-0.61, 9.62, 10669
25.09, 101656.97, 0.23,-0.63, 9.54, 10674
25.09, 101656.97, 0.25,-0.61, 9.56, 10679
25.09, 101656.97, 0.17,-0.54, 9.58, 10684
25.09, 101655.81, 0.17,-0.52, 9.58, 10689
25.09, 101655.81, 0.15,-0.57, 9.62, 10694
25.09, 101655.81, 0.15,-0.57, 9.67, 10699
25.09, 101655.81, 0.23,-0.57, 9.67, 10704
25.09, 101655.81, 0.21,-0.65, 9.69, 10709
25.09, 101655.81, 0.21,-0.54, 9.67, 10714
25.09, 101655.81, 0.23,-0.54, 9.66, 10719
25.09, 101657.19, 0.21,-0.52, 9.75, 10724
25.09, 101657.19, 0.23,-0.48, 9.77, 10729
25.09, 101657.19, 0.27,-0.56, 9.67, 10734
25.09, 101657.19, 0.27,-0.52, 9.66, 10739
25.09, 101657.19, 0.33,-0.56, 9.46, 10744
25.09, 101657.19, 0.31,-0.56, 9.20, 10749
25.09, 101657.19, 0.34,-0.59, 9.60, 10754
25.09, 101657.19, 0.23,-0.59, 9.50, 10759
25.09, 101657.95, 0.25,-0.63, 9.60, 10764
25.09, 101657.95, 0.25,-0.56, 9.66, 10769
25.09, 101657.95, 0.25,-0.57, 9.58, 10774
25.09, 101657.95, 0.27,-0.50, 9.58, 10779
25.09, 101657.95, 0.23,-0.59, 9.66, 10784
25.09, 101657.95, 0.17,-0.57, 9.64, 10789
25.09, 101657.95, 0.21,-0.59, 9.66, 10794
25.09, 101657.85, 0.27,-0.50, 9.67, 10799
25.09, 101657.85, 0.19,-0.61, 9.66, 10804
25.09, 101657.85, 0.29,-0.61, 9.73, 10809
25.09, 101657.85, 0.19,-0.57, 9.71, 10814
25.09, 101657.85, 0.27,-0.59, 9.62, 10819
25.09, 101657.85, 0.25,-0.59, 9.60, 10824
25.09, 101657.85, 0.21,-0.59, 9.66, 10829
25.09, 101655.75, 0.25,-0.48, 9.48, 10834
25.09, 101655.75, 0.27,-0.52, 9.64, 10839
25.09, 101655.75, 0.25,-0.50, 9.52, 10844
25.09, 101655.75, 0.21,-0.59, 9.60, 10849
25.09, 101655.75, 0.34,-0.61, 9.67, 10854
25.09, 101655.75, 0.33,-0.54, 9.69, 10859
25.09, 101655.75, 0.27,-0.54, 9.67, 10864
25.09, 101657.69, 0.27,-0.61, 9.71, 10869
25.09, 101657.69, 0.21,-0.59, 9.62, 10874
25.09, 101657.69, 0.25,-0.56, 9.58, 10886
25.09, 101657.69, 0.21,-0.57, 9.66, 10890
25.09, 101657.69, 0.15,-0.54, 9.83, 10895
25.09, 101657.69, 0.21,-0.54, 9.62, 10900
25.09, 101658.29, 0.17,-0.57, 9.54, 10905
25.09, 101658.29, 0.23,-0.57, 9.58, 10910
25.09, 101658.29, 0.27,-0.57, 9.64, 10915
25.09, 101658.29, 0.21,-0.57, 9.67, 10920
25.09, 101658.29, 0.25,-0.61, 9.58, 10925
25.09, 101658.29, 0.27,-0.65, 9.64, 10930
25.09, 101658.29, 0.27,-0.57, 9.62, 10935
25.09, 101656.36, 0.33,-0.57, 9.69, 10940
25.09, 101656.36, 0.25,-0.61, 9.62, 10945
25.09, 101656.36, 0.27,-0.61, 9.64, 10950
25.09, 101656.36, 0.21,-0.59, 9.69, 10955
25.09, 101656.36, 0.29,-0.52, 9.66, 10960
25.09, 101656.36, 0.25,-0.50, 9.64, 10965
25.09, 101656.36, 0.29,-0.56, 9.62, 10970
25.09, 101657.95, 0.23,-0.57, 9.67, 10975
25.09, 101657.95, 0.23,-0.56, 9.62, 10980
25.09, 101657.95, 0.27,-0.56, 9.58, 10985
25.09, 101657.95, 0.23,-0.57, 9.52, 10990
25.09, 101657.95, 0.15,-0.54, 9.52, 10995
25.09, 101657.95, 0.21,-0.57, 9.56, 11000
25.09, 101657.95, 0.19,-0.46, 9.77, 11005
25.09, 101660.09, 0.27,-0.67, 9.56, 11010
25.09, 101660.09, 0.19,-0.57, 9.66, 11015
25.09, 101660.09, 0.21,-0.59, 9.67, 11020
25.09, 101660.09, 0.19,-0.59, 9.56, 11025
25.09, 101660.09, 0.25,-0.59, 9.58, 11030
25.09, 101660.09, 0.25,-0.57, 9.62, 11035
25.09, 101660.09, 0.25,-0.61, 9.62, 11040
25.09, 101657.69, 0.21,-0.57, 9.69, 11045
25.09, 101657.69, 0.31,-0.59, 9.66, 11050
25.09, 101657.69, 0.31,-0.52, 9.62, 11055
25.09, 101657.69, 0.25,-0.59, 9.66, 11060
25.09, 101657.69, 0.21,-0.56, 9.64, 11065
25.09, 101657.69, 0.17,-0.57, 9.64, 11070
25.09, 101657.69, 0.21,-0.59, 9.64, 11075
25.09, 101656.74, 0.27,-0.52, 9.69, 11080
25.09, 101656.74, 0.23,-0.56, 9.60, 11085
25.09, 101656.74, 0.25,-0.57, 9.60, 11090
25.09, 101656.74, 0.29,-0.56, 9.69, 11095
25.09, 101656.74, 0.27,-0.46, 9.64, 11100
25.09, 101656.74, 0.25,-0.59, 9.52, 11105
25.09, 101656.74, 0.27,-0.52, 9.69, 11110
25.09, 101657.23, 0.21,-0.57, 9.73, 11115
25.09, 101657.23, 0.19,-0.57, 9.69, 11120
25.09, 101657.23, 0.11,-0.50, 9.73, 11125
25.09, 101657.23, 0.19,-0.54, 9.58, 11130
25.09, 101657.23, 0.21,-0.52, 9.64, 11135
25.09, 101657.23, 0.25,-0.57, 9.56, 11140
25.09, 101657.23, 0.23,-0.57, 9.60, 11145
25.09, 101657.36, 0.21,-0.57, 9.62, 11150
25.09, 101657.36, 0.23,-0.52, 9.62, 11155
25.09, 101657.36, 0.29,-0.56, 9.66, 11160
25.09, 101657.36, 0.23,-0.56, 9.64, 11165
25.09, 101657.36, 0.25,-0.59, 9.60, 11170
25.09, 101657.36, 0.29,-0.54, 9.58, 11175
25.09, 101657.36, 0.19,-0.59, 9.66, 11180
25.09, 101657.36, 0.25,-0.59, 9.64, 11185
25.09, 101658.83, 0.29,-0.57, 9.66, 11190
25.09, 101658.83, 0.25,-0.56, 9.69, 11195
25.09, 101658.83, 0.21,-0.56, 9.66, 11200
25.09, 101658.83, 0.19,-0.54, 9.62, 11205
25.09, 101658.83, 0.27,-0.57, 9.60, 11210
25.09, 101658.83, 0.23,-0.59, 9.62, 11215
25.09, 101658.83, 0.21,-0.59, 9.66, 11220
25.09, 101656.80, 0.23,-0.59, 9.62, 11225
25.09, 101656.80, 0.25,-0.63, 9.60, 11230
25.09, 101656.80, 0.27,-0.54, 9.73, 11235
25.09, 101656.80, 0.23,-0.56, 9.66, 11240
25.09, 101656.80, 0.21,-0.63, 9.58, 11245
25.09, 101656.80, 0.25,-0.46, 9.62, 11250
25.09, 101656.80, 0.21,-0.56, 9.67, 11255
25.09, 101653.45, 0.31,-0.50, 9.48, 11260
25.09, 101653.45, 0.27,-0.52, 9.60, 11265
25.09, 101653.45, 0.34,-0.54, 9.64, 11270
25.09, 101653.45, 0.29,-0.50, 9.62, 11275
25.09, 101653.45, 0.27,-0.52, 9.64, 11280
25.09, 101653.45, 0.19,-0.56, 9.66, 11285
25.09, 101653.45, 0.19,-0.59, 9.66, 11290
25.09, 101655.27, 0.19,-0.59, 9.58, 11295
25.09, 101655.27, 0.23,-0.65, 9.54, 11300
25.09, 101655.27, 0.21,-0.63, 9.64, 11305
25.09, 101655.27, 0.23,-0.59, 9.62, 11310
25.09, 101655.27, 0.21,-0.61, 9.66, 11315
25.09, 101655.27, 0.19,-0.57, 9.67, 11320
25.09, 101655.27, 0.19,-0.52, 9.69, 11325
25.09, 101655.27, 0.17,-0.52, 9.64, 11330
25.09, 101655.27, 0.19,-0.54, 9.64, 11335
25.09, 101655.27, 0.19,-0.56, 9.54, 11340
25.09, 101655.27, 0.17,-0.56, 9.52, 11345
25.09, 101655.27, 0.25,-0.56, 9.66, 11350
25.09, 101655.27, 0.27,-0.48, 9.48, 11355
25.09, 101655.27, 0.23,-0.59, 9.62, 11360
25.09, 101655.27, 0.27,-0.59, 9.66, 11365
25.09, 101655.27, 0.31,-0.50, 9.71, 11370
25.09, 101655.27, 0.25,-0.54, 9.67, 11375
25.09, 101655.27, 0.23,-0.54, 9.62, 11380
25.09, 101655.27, 0.25,-0.54, 9.64, 11388
25.09, 101655.27, 0.21,-0.52, 9.62, 11392
25.09, 101655.27, 0.19,-0.59, 9.69, 11397
25.09, 101655.53, 0.23,-0.61, 9.75, 11402
25.09, 101655.53, 0.25,-0.59, 9.67, 11407
25.09, 101655.53, 0.23,-0.57, 9.64, 11412
25.09, 101655.53, 0.27,-0.56, 9.66, 11417
25.09, 101655.53, 0.23,-0.54, 9.64, 11422
25.09, 101655.53, 0.27,-0.59, 9.60, 11427
25.09, 101655.53, 0.21,-0.61, 9.66, 11432
25.09, 101656.97, 0.25,-0.48, 9.79, 11437
25.09, 101656.97, 0.19,-0.52, 9.85, 11442
25.09, 101656.97, 0.23,-0.46, 9.60, 11447
25.09, 101656.97, 0.25,-0.61, 9.64, 11452
25.09, 101656.97, 0.25,-0.63, 9.67, 11457
25.09, 101656.97, 0.23,-0.52, 9.66, 11462
25.09, 101656.97, 0.21,-0.59, 9.67, 11467
25.09, 101658.18, 0.21,-0.48, 9.66, 11472
25.09, 101658.18, 0.15,-0.54, 9.66, 11477
25.09, 101658.18, 0.23,-0.56, 9.69, 11482
25.09, 101658.18, 0.23,-0.56, 9.67, 11487
25.09, 101658.18, 0.27,-0.56, 9.62, 11492
25.09, 101658.18, 0.31,-0.57, 9.60, 11497
25.09, 101658.18, 0.27,-0.63, 9.67, 11502
25.09, 101658.23, 0.23,-0.63, 9.62, 11507
25.09, 101658.23, 0.25,-0.57, 9.64, 11512
25.09, 101658.23, 0.19,-0.59, 9.60, 11517
25.09, 101658.23, 0.19,-0.56, 9.64, 11522
25.09, 101658.23, 0.27,-0.57, 9.66, 11527
25.09, 101658.23, 0.23,-0.67, 9.37, 11532
25.09, 101658.23, 0.21,-0.61, 9.45, 11537
25.09, 101657.73, 0.23,-0.50, 9.69, 11542
25.09, 101657.73, 0.23,-0.59, 9.67, 11547
25.09, 101657.73, 0.27,-0.59, 9.62, 11552
25.09, 101657.73, 0.29,-0.61, 9.69, 11557
25.09, 101657.73, 0.25,-0.54, 9.33, 11562
25.09, 101657.73, 0.34,-0.52, 9.64, 11567
25.09, 101657.73, 0.21,-0.63, 9.69, 11572
25.09, 101654.95, 0.31,-0.54, 9.71, 11577
25.09, 101654.95, 0.17,-0.48, 9.71, 11582
25.09, 101654.95, 0.21,-0.52, 9.67, 11587
25.09, 101654.95, 0.31,-0.57, 9.71, 11592
25.09, 101654.95, 0.21,-0.61, 9.64, 11597
25.09, 101654.95, 0.21,-0.57, 9.71, 11602
25.09, 101654.95, 0.27,-0.57, 9.67, 11607
25.09, 101656.09, 0.27,-0.59, 9.66, 11612
25.09, 101656.09, 0.27,-0.59, 9.66, 11617
25.09, 101656.09, 0.21,-0.57, 9.62, 11622
25.09, 101656.09, 0.21,-0.54, 9.66, 11627
25.09, 101656.09, 0.23,-0.59, 9.67, 11632
25.09, 101656.09, 0.17,-0.54, 9.58, 11637
25.09, 101656.09, 0.15,-0.52, 9.58, 11642
25.09, 101656.52, 0.17,-0.52, 9.50, 11647
25.09, 101656.52, 0.27,-0.52, 9.62, 11652
25.09, 101656.52, 0.23,-0.50, 9.52, 11657
25.09, 101656.52, 0.29,-0.57, 9.73, 11662
25.09, 101656.52, 0.23,-0.59, 9.62, 11667
25.09, 101656.52, 0.17,-0.61, 9.58, 11672
25.09, 101656.52, 0.23,-0.59, 9.62, 11677
25.09, 101656.52, 0.13,-0.59, 9.52, 11682
25.09, 101656.03, 0.23,-0.61, 9.62, 11687
25.09, 101656.03, 0.31,-0.59, 9.54, 11692
25.09, 101656.03, 0.27,-0.57, 9.52, 11697
25.09, 101656.03, 0.25,-0.57, 9.60, 11702
25.09, 101656.03, 0.21,-0.61, 9.71, 11707
25.09, 101656.03, 0.23,-0.56, 9.66, 11712
25.09, 101656.03, 0.23,-0.63, 9.64, 11717
25.09, 101660.49, 0.25,-0.59, 9.67, 11722
25.09, 101660.49, 0.21,-0.59, 9.62, 11727
25.09, 101660.49, 0.27,-0.57, 9.66, 11732
25.09, 101660.49, 0.23,-0.56, 9.62, 11737
25.09, 101660.49, 0.19,-0.57, 9.67, 11742
25.09, 101660.49, 0.27,-0.57, 9.66, 11747
25.09, 101660.49, 0.23,-0.59, 9.58, 11752
25.09, 101657.12, 0.21,-0.52, 9.56, 11757
25.09, 101657.12, 0.25,-0.50, 9.62, 11762
25.09, 101657.12, 0.31,-0.54, 9.71, 11767
25.09, 101657.12, 0.21,-0.61, 9.64, 11772
25.09, 101657.12, 0.21,-0.54, 9.71, 11777
25.09, 101657.12, 0.27,-0.57, 9.69, 11782
25.09, 101657.12, 0.29,-0.61, 9.77, 11787
25.09, 101658.39, 0.25,-0.59, 9.71, 11792
25.09, 101658.39, 0.31,-0.61, 9.71, 11797
25.09, 101658.39, 0.21,-0.61, 9.62, 11802
25.09, 101658.39, 0.33,-0.61, 9.67, 11807
25.09, 101658.39, 0.27,-0.57, 9.67, 11812
25.09, 101658.39, 0.19,-0.59, 9.67, 11817
25.09, 101658.39, 0.23,-0.57, 9.64, 11822
25.09, 101657.91, 0.25,-0.56, 9.69, 11827
25.09, 101657.91, 0.25,-0.59, 9.69, 11832
25.09, 101657.91, 0.27,-0.57, 9.69, 11837
25.09, 101657.91, 0.23,-0.54, 9.58, 11842
25.09, 101657.91, 0.25,-0.57, 9.60, 11847
25.09, 101657.91, 0.19,-0.59, 9.71, 11852
25.09, 101657.91, 0.19,-0.56, 9.64, 11857
25.09, 101656.91, 0.19,-0.56, 9.64, 11862
25.09, 101656.91, 0.25,-0.59, 9.54, 11867
25.09, 101656.91, 0.27,-0.57, 9.66, 11872
25.09, 101656.91, 0.23,-0.57, 9.62, 11877
25.09, 101656.91, 0.21,-0.52, 9.62, 11882
