External Temperature (C), Barometric Pressure (Pa), Acceleration X, Acceleration Y, Acceleration Z
24.75, 101641.00, 0.23,-0.56, 9.60, 5088
24.75, 101641.00, 0.23,-0.56, 9.60, 5100
24.75, 101641.00, 0.27,-0.50, 9.64, 5104
24.75, 101641.00, 0.19,-0.59, 9.75, 5109
24.75, 101641.00, 0.25,-0.59, 9.75, 5114
24.75, 101641.00, 0.23,-0.56, 9.73, 5119
24.75, 101638.52, 0.23,-0.54, 9.75, 5124
24.75, 101638.52, 0.15,-0.56, 9.69, 5129
24.75, 101638.52, 0.19,-0.54, 9.62, 5134
24.75, 101638.52, 0.17,-0.59, 9.58, 5139
24.75, 101638.52, 0.21,-0.57, 9.67, 5144
24.75, 101638.52, 0.23,-0.52, 9.62, 5149
24.75, 101638.52, 0.19,-0.54, 9.60, 5154
24.75, 101638.14, 0.21,-0.61, 9.67, 5159
24.75, 101638.14, 0.25,-0.56, 9.64, 5164
24.75, 101638.14, 0.25,-0.54, 9.66, 5169
24.75, 101638.14, 0.31,-0.61, 9.58, 5174
24.75, 101638.14, 0.13,-0.54, 9.43, 5179
24.75, 101638.14, 0.23,-0.59, 9.73, 5184
24.75, 101638.14, 0.21,-0.50, 9.73, 5189
24.75, 101640.66, 0.23,-0.50, 9.60, 5194
24.75, 101640.66, 0.19,-0.54, 9.73, 5199
24.75, 101640.66, 0.27,-0.65, 9.67, 5204
24.75, 101640.66, 0.29,-0.59, 9.62, 5209
24.75, 101640.66, 0.29,-0.56, 9.69, 5214
24.75, 101640.66, 0.25,-0.59, 9.64, 5219
24.75, 101640.66, 0.25,-0.54, 9.58, 5224
24.75, 101640.17, 0.21,-0.50, 9.66, 5229
24.75, 101640.17, 0.29,-0.54, 9.58, 5234
24.75, 101640.17, 0.25,-0.61, 9.60, 5239
24.75, 101640.17, 0.27,-0.59, 9.58, 5244
24.75, 101640.17, 0.19,-0.56, 9.64, 5249
24.75, 101640.17, 0.13,-0.52, 9.62, 5254
24.75, 101640.17, 0.23,-0.63, 9.64, 5259
24.75, 101639.84, 0.19,-0.56, 9.66, 5264
24.75, 101639.84, 0.21,-0.57, 9.58, 5269
24.75, 101639.84, 0.25,-0.56, 9.54, 5274
24.75, 101639.84, 0.15,-0.56, 9.62, 5279
24.75, 101639.84, 0.27,-0.54, 9.56, 5284
24.75, 101639.84, 0.23,-0.54, 9.62, 5289
24.75, 101639.84, 0.21,-0.57, 9.50, 5294
24.75, 101640.40, 0.25,-0.56, 9.50, 5299
24.75, 101640.40, 0.19,-0.61, 9.62, 5304
24.75, 101640.40, 0.23,-0.59, 9.58, 5309
24.75, 101640.40, 0.21,-0.59, 9.66, 5314
24.75, 101640.40, 0.27,-0.57, 9.64, 5319
24.75, 101640.40, 0.27,-0.56, 9.54, 5324
24.75, 101640.40, 0.19,-0.59, 9.56, 5329
24.75, 101640.66, 0.23,-0.61, 9.64, 5334
24.75, 101640.66, 0.19,-0.57, 9.58, 5339
24.75, 101640.66, 0.19,-0.48, 9.66, 5344
24.75, 101640.66, 0.25,-0.57, 9.60, 5349
24.75, 101640.66, 0.23,-0.56, 9.58, 5354
24.75, 101640.66, 0.31,-0.54, 9.62, 5359
24.75, 101640.66, 0.21,-0.52, 9.60, 5364
24.75, 101640.82, 0.19,-0.56, 9.62, 5369
24.75, 101640.82, 0.15,-0.59, 9.60, 5374
24.75, 101640.82, 0.19,-0.57, 9.62, 5379
24.75, 101640.82, 0.19,-0.59, 9.60, 5384
24.75, 101640.82, 0.23,-0.54, 9.64, 5389
24.75, 101640.82, 0.25,-0.59, 9.66, 5394
24.75, 101640.82, 0.27,-0.63, 9.52, 5399
24.75, 101638.36, 0.25,-0.57, 9.52, 5404
24.75, 101638.36, 0.25,-0.56, 9.71, 5409
24.75, 101638.36, 0.25,-0.59, 9.66, 5414
24.75, 101638.36, 0.23,-0.59, 9.56, 5419
24.75, 101638.36, 0.29,-0.65, 9.69, 5424
24.75, 101638.36, 0.23,-0.56, 9.62, 5429
24.75, 101638.36, 0.25,-0.57, 9.58, 5434
24.75, 101638.36, 0.27,-0.57, 9.54, 5439
24.75, 101639.99, 0.27,-0.57, 9.56, 5444
24.75, 101639.99, 0.29,-0.57, 9.62, 5449
24.75, 101639.99, 0.25,-0.65, 9.64, 5454
24.75, 101639.99, 0.27,-0.57, 9.66, 5459
24.75, 101639.99, 0.29,-0.61, 9.62, 5464
24.75, 101639.99, 0.27,-0.59, 9.56, 5469
24.75, 101639.99, 0.21,-0.61, 9.62, 5474
24.75, 101639.01, 0.17,-0.52, 9.62, 5479
24.75, 101639.01, 0.15,-0.54, 9.66, 5484
24.75, 101639.01, 0.15,-0.57, 9.60, 5489
24.75, 101639.01, 0.15,-0.52, 9.67, 5494
24.75, 101639.01, 0.23,-0.48, 9.73, 5499
24.75, 101639.01, 0.27,-0.52, 9.67, 5504
24.75, 101639.01, 0.21,-0.50, 9.60, 5509
24.75, 101639.50, 0.25,-0.44, 9.60, 5514
24.75, 101639.50, 0.23,-0.52, 9.81, 5519
24.75, 101639.50, 0.21,-0.52, 9.67, 5524
24.75, 101639.50, 0.15,-0.57, 9.52, 5529
24.75, 101639.50, 0.19,-0.56, 9.73, 5534
24.75, 101639.50, 0.17,-0.67, 9.33, 5539
24.75, 101639.50, 0.23,-0.56, 9.52, 5544
24.75, 101638.67, 0.23,-0.63, 9.60, 5549
24.75, 101638.67, 0.21,-0.67, 9.67, 5554
24.75, 101638.67, 0.15,-0.61, 9.62, 5559
24.75, 101638.67, 0.23,-0.57, 9.62, 5564
24.75, 101638.67, 0.23,-0.54, 9.52, 5569
24.75, 101638.67, 0.21,-0.54, 9.66, 5574
24.75, 101638.67, 0.21,-0.63, 9.66, 5579
24.75, 101638.18, 0.21,-0.61, 9.66, 5584
24.75, 101638.18, 0.17,-0.59, 9.62, 5589
24.75, 101638.18, 0.23,-0.57, 9.62, 5594
24.75, 101638.18, 0.23,-0.54, 9.71, 5602
24.75, 101638.18, 0.21,-0.59, 9.60, 5606
24.75, 101638.18, 0.29,-0.59, 9.58, 5611
24.75, 101638.18, 0.27,-0.59, 9.64, 5616
24.75, 101639.99, 0.23,-0.52, 9.71, 5621
24.75, 101639.99, 0.29,-0.56, 9.50, 5626
24.75, 101639.99, 0.25,-0.59, 9.60, 5631
24.75, 101639.99, 0.23,-0.59, 9.66, 5636
24.75, 101639.99, 0.29,-0.59, 9.62, 5641
24.75, 101639.99, 0.29,-0.54, 9.66, 5646
24.75, 101639.99, 0.25,-0.52, 9.66, 5651
24.75, 101639.66, 0.23,-0.61, 9.58, 5656
24.75, 101639.66, 0.27,-0.57, 9.54, 5661
24.75, 101639.66, 0.23,-0.54, 9.60, 5666
24.75, 101639.66, 0.17,-0.61, 9.66, 5671
24.75, 101639.66, 0.21,-0.61, 9.60, 5676
24.75, 101639.66, 0.31,-0.50, 9.67, 5681
24.75, 101639.66, 0.23,-0.57, 9.66, 5686
24.75, 101639.33, 0.19,-0.59, 9.64, 5691
24.75, 101639.33, 0.21,-0.56, 9.62, 5696
24.75, 101639.33, 0.23,-0.57, 9.62, 5701
24.75, 101639.33, 0.29,-0.63, 9.62, 5706
24.75, 101639.33, 0.23,-0.63, 9.50, 5711
24.75, 101639.33, 0.27,-0.61, 9.83, 5716
24.75, 101639.33, 0.25,-0.61, 9.52, 5721
24.75, 101640.61, 0.29,-0.59, 9.56, 5726
24.75, 101640.61, 0.31,-0.63, 9.64, 5731
24.75, 101640.61, 0.27,-0.65, 9.58, 5736
24.75, 101640.61, 0.27,-0.56, 9.64, 5741
24.75, 101640.61, 0.29,-0.61, 9.67, 5746
24.75, 101640.61, 0.27,-0.67, 9.58, 5751
24.75, 101640.61, 0.29,-0.59, 9.62, 5756
24.75, 101638.42, 0.31,-0.59, 9.58, 5761
24.75, 101638.42, 0.19,-0.57, 9.58, 5766
24.75, 101638.42, 0.23,-0.61, 9.67, 5771
24.75, 101638.42, 0.25,-0.56, 9.64, 5776
24.75, 101638.42, 0.25,-0.56, 9.62, 5781
24.75, 101638.42, 0.19,-0.54, 9.64, 5786
24.75, 101638.42, 0.23,-0.50, 9.67, 5791
24.75, 101639.23, 0.21,-0.56, 9.69, 5796
24.75, 101639.23, 0.21,-0.65, 9.71, 5801
24.75, 101639.23, 0.27,-0.57, 9.62, 5806
24.75, 101639.23, 0.25,-0.57, 9.62, 5811
24.75, 101639.23, 0.21,-0.54, 9.62, 5816
24.75, 101639.23, 0.17,-0.59, 9.58, 5821
24.75, 101639.23, 0.31,-0.57, 9.66, 5826
24.75, 101637.84, 0.19,-0.65, 9.73, 5831
24.75, 101637.84, 0.21,-0.61, 9.66, 5836
24.75, 101637.84, 0.27,-0.54, 9.64, 5841
24.75, 101637.84, 0.21,-0.59, 9.62, 5846
24.75, 101637.84, 0.21,-0.56, 9.75, 5851
24.75, 101637.84, 0.21,-0.56, 9.67, 5856
24.75, 101637.84, 0.27,-0.44, 9.67, 5861
24.75, 101640.33, 0.21,-0.56, 9.58, 5866
24.75, 101640.33, 0.25,-0.48, 9.60, 5871
24.75, 101640.33, 0.29,-0.57, 9.66, 5876
24.75, 101640.33, 0.23,-0.57, 9.58, 5881
24.75, 101640.33, 0.31,-0.59, 9.60, 5886
24.75, 101640.33, 0.29,-0.61, 9.64, 5891
24.75, 101640.33, 0.21,-0.57, 9.60, 5896
24.75, 101639.83, 0.21,-0.59, 9.66, 5901
24.75, 101639.83, 0.25,-0.57, 9.69, 5906
24.75, 101639.83, 0.23,-0.56, 9.64, 5911
24.75, 101639.83, 0.19,-0.57, 9.58, 5916
24.75, 101639.83, 0.25,-0.57, 9.66, 5921
24.75, 101639.83, 0.27,-0.56, 9.66, 5926
24.75, 101639.83, 0.17,-0.59, 9.66, 5931
24.75, 101637.02, 0.19,-0.52, 9.64, 5936
24.75, 101637.02, 0.23,-0.61, 9.66, 5941
24.75, 101637.02, 0.15,-0.61, 9.62, 5946
24.75, 101637.02, 0.17,-0.73, 9.73, 5951
24.75, 101637.02, 0.23,-0.65, 9.56, 5956
24.75, 101637.02, 0.23,-0.57, 9.60, 5961
24.75, 101637.02, 0.17,-0.57, 9.60, 5966
24.75, 101637.02, 0.19,-0.54, 9.56, 5971
24.75, 101639.50, 0.15,-0.54, 9.64, 5976
24.75, 101639.50, 0.19,-0.57, 9.62, 5981
24.75, 101639.50, 0.21,-0.57, 9.67, 5986
24.75, 101639.50, 0.29,-0.56, 9.62, 5991
24.75, 101639.50, 0.21,-0.54, 9.67, 5996
24.75, 101639.50, 0.25,-0.63, 9.66, 6001
24.75, 101639.50, 0.25,-0.56, 9.60, 6006
24.75, 101638.91, 0.23,-0.61, 9.62, 6011
24.75, 101638.91, 0.21,-0.54, 9.62, 6016
24.75, 101638.91, 0.27,-0.57, 9.64, 6021
24.75, 101638.91, 0.23,-0.57, 9.67, 6026
24.75, 101638.91, 0.19,-0.52, 9.69, 6031
24.75, 101638.91, 0.17,-0.59, 9.62, 6036
24.75, 101638.91, 0.29,-0.57, 9.58, 6041
24.75, 101640.05, 0.23,-0.61, 9.58, 6046
24.75, 101640.05, 0.21,-0.52, 9.62, 6051
24.75, 101640.05, 0.11,-0.50, 9.64, 6056
24.75, 101640.05, 0.21,-0.50, 9.75, 6061
24.75, 101640.05, 0.21,-0.54, 9.37, 6066
24.75, 101640.05, 0.19,-0.61, 9.66, 6071
24.75, 101640.05, 0.19,-0.54, 9.50, 6076
24.75, 101639.66, 0.21,-0.52, 9.71, 6081
24.75, 101639.66, 0.25,-0.48, 9.54, 6086
24.75, 101639.66, 0.23,-0.57, 9.83, 6091
24.75, 101639.66, 0.25,-0.57, 9.77, 6096
24.75, 101639.66, 0.21,-0.59, 9.62, 6104
24.75, 101639.66, 0.31,-0.67, 9.54, 6108
24.75, 101639.66, 0.27,-0.59, 9.60, 6113
24.75, 101639.72, 0.23,-0.57, 9.67, 6118
24.75, 101639.72, 0.25,-0.57, 9.71, 6123
24.75, 101639.72, 0.27,-0.54, 9.60, 6128
24.75, 101639.72, 0.27,-0.57, 9.62, 6133
24.75, 101639.72, 0.25,-0.63, 9.58, 6138
24.75, 101639.72, 0.25,-0.57, 9.60, 6143
24.75, 101639.72, 0.21,-0.59, 9.62, 6148
24.75, 101639.17, 0.25,-0.61, 9.66, 6153
24.75, 101639.17, 0.21,-0.59, 9.62, 6158
24.75, 101639.17, 0.19,-0.59, 9.46, 6163
24.75, 101639.17, 0.19,-0.56, 9.87, 6168
24.75, 101639.17, 0.23,-0.59, 9.77, 6173
24.75, 101639.17, 0.27,-0.56, 9.85, 6178
24.75, 101639.17, 0.27,-0.59, 9.67, 6183
24.75, 101643.08, 0.36,-0.48, 9.71, 6188
24.75, 101643.08, 0.23,-0.50, 9.62, 6193
24.75, 101643.08, 0.27,-0.52, 9.62, 6198
24.75, 101643.08, 0.25,-0.57, 9.56, 6203
24.75, 101643.08, 0.17,-0.61, 9.67, 6208
24.75, 101643.08, 0.19,-0.56, 9.79, 6213
24.75, 101643.08, 0.21,-0.50, 9.67, 6218
24.75, 101639.99, 0.21,-0.59, 9.69, 6223
24.75, 101639.99, 0.29,-0.59, 9.56, 6228
24.75, 101639.99, 0.23,-0.61, 9.62, 6233
24.75, 101639.99, 0.23,-0.54, 9.62, 6238
24.75, 101639.99, 0.27,-0.59, 9.60, 6243
24.75, 101639.99, 0.17,-0.59, 9.64, 6248
24.75, 101639.99, 0.19,-0.59, 9.64, 6253
24.75, 101640.88, 0.27,-0.56, 9.64, 6258
24.75, 101640.88, 0.19,-0.52, 9.60, 6263
24.75, 101640.88, 0.23,-0.52, 9.66, 6268
24.75, 101640.88, 0.19,-0.57, 9.58, 6273
24.75, 101640.88, 0.21,-0.57, 9.58, 6278
24.75, 101640.88, 0.27,-0.56, 9.73, 6283
24.75, 101640.88, 0.29,-0.50, 9.60, 6288
24.75, 101642.42, 0.25,-0.59, 9.33, 6293
24.75, 101642.42, 0.25,-0.61, 9.48, 6298
24.75, 101642.42, 0.21,-0.56, 9.79, 6303
24.75, 101642.42, 0.27,-0.57, 9.67, 6308
24.75, 101642.42, 0.23,-0.54, 9.66, 6313
24.75, 101642.42, 0.25,-0.57, 9.64, 6318
24.75, 101642.42, 0.27,-0.57, 9.66, 6323
24.75, 101639.23, 0.15,-0.57, 9.69, 6328
24.75, 101639.23, 0.15,-0.59, 9.69, 6333
24.75, 101639.23, 0.27,-0.57, 9.60, 6338
24.75, 101639.23, 0.25,-0.59, 9.66, 6343
24.75, 101639.23, 0.23,-0.61, 9.64, 6348
24.75, 101639.23, 0.21,-0.63, 9.66, 6353
24.75, 101639.23, 0.21,-0.59, 9.69, 6358
24.75, 101639.01, 0.25,-0.54, 9.64, 6363
24.75, 101639.01, 0.21,-0.56, 9.62, 6368
24.75, 101639.01, 0.27,-0.56, 9.62, 6373
24.75, 101639.01, 0.29,-0.61, 9.58, 6378
24.75, 101639.01, 0.19,-0.61, 9.60, 6383
24.75, 101639.01, 0.19,-0.59, 9.62, 6388
24.75, 101639.01, 0.25,-0.57, 9.60, 6393
24.75, 101637.69, 0.21,-0.56, 9.58, 6398
24.75, 101637.69, 0.19,-0.63, 9.43, 6403
24.75, 101637.69, 0.29,-0.52, 9.50, 6408
24.75, 101637.69, 0.21,-0.57, 9.66, 6413
24.75, 101637.69, 0.19,-0.54, 9.41, 6418
24.75, 101637.69, 0.27,-0.52, 9.48, 6423
24.75, 101637.69, 0.25,-0.57, 9.52, 6428
24.75, 101643.06, 0.21,-0.59, 9.66, 6433
24.75, 101643.06, 0.29,-0.63, 9.62, 6438
24.75, 101643.06, 0.23,-0.59, 9.67, 6443
24.75, 101643.06, 0.23,-0.59, 9.54, 6448
24.75, 101643.06, 0.27,-0.48, 9.58, 6453
24.75, 101643.06, 0.19,-0.63, 9.58, 6458
24.75, 101643.06, 0.23,-0.57, 9.58, 6463
24.75, 101642.31, 0.19,-0.50, 9.58, 6468
24.75, 101642.31, 0.25,-0.59, 9.67, 6473
24.75, 101642.31, 0.25,-0.57, 9.64, 6478
24.75, 101642.31, 0.34,-0.52, 9.71, 6483
24.75, 101642.31, 0.34,-0.50, 9.58, 6488
24.75, 101642.31, 0.29,-0.52, 9.54, 6493
24.75, 101642.31, 0.21,-0.56, 9.54, 6498
24.75, 101642.31, 0.21,-0.56, 9.58, 6503
24.75, 101641.82, 0.25,-0.54, 9.60, 6508
24.75, 101641.82, 0.34,-0.56, 9.67, 6513
24.75, 101641.82, 0.27,-0.57, 9.46, 6518
24.75, 101641.82, 0.23,-0.59, 9.75, 6523
24.75, 101641.82, 0.25,-0.48, 9.81, 6528
24.75, 101641.82, 0.25,-0.63, 9.66, 6533
24.75, 101641.82, 0.19,-0.57, 9.66, 6538
24.75, 101638.95, 0.25,-0.48, 9.56, 6543
24.75, 101638.95, 0.21,-0.59, 9.56, 6548
24.75, 101638.95, 0.19,-0.59, 9.50, 6553
24.75, 101638.95, 0.25,-0.54, 9.58, 6558
24.75, 101638.95, 0.23,-0.54, 9.58, 6563
24.75, 101638.95, 0.21,-0.65, 9.62, 6568
24.75, 101638.95, 0.21,-0.57, 9.60, 6573
24.75, 101638.56, 0.21,-0.57, 9.64, 6578
24.75, 101638.56, 0.19,-0.57, 9.60, 6583
24.75, 101638.56, 0.27,-0.54, 9.66, 6588
24.75, 101638.56, 0.25,-0.54, 9.58, 6593
24.75, 101638.56, 0.21,-0.59, 9.62, 6598
24.75, 101638.56, 0.21,-0.57, 9.62, 6606
24.75, 101642.58, 0.17,-0.46, 9.67, 6610
24.75, 101642.58, 0.19,-0.61, 9.62, 6615
24.75, 101642.58, 0.19,-0.67, 9.58, 6620
24.75, 101642.58, 0.27,-0.57, 9.79, 6625
24.75, 101642.58, 0.19,-0.52, 9.79, 6630
24.75, 101642.58, 0.25,-0.48, 9.69, 6635
24.75, 101642.58, 0.17,-0.61, 9.56, 6640
24.75, 101642.58, 0.29,-0.56, 9.60, 6645
24.75, 101640.83, 0.23,-0.57, 9.73, 6650
24.75, 101640.83, 0.19,-0.59, 9.69, 6655
24.75, 101640.83, 0.21,-0.61, 9.64, 6660
24.75, 101640.83, 0.23,-0.59, 9.69, 6665
24.75, 101640.83, 0.25,-0.57, 9.62, 6670
24.75, 101640.83, 0.19,-0.59, 9.58, 6675
24.75, 101640.83, 0.27,-0.56, 9.60, 6680
24.75, 101641.16, 0.27,-0.59, 9.60, 6685
24.75, 101641.16, 0.25,-0.52, 9.56, 6690
24.75, 101641.16, 0.25,-0.54, 9.66, 6695
24.75, 101641.16, 0.25,-0.59, 9.64, 6700
24.75, 101641.16, 0.27,-0.57, 9.64, 6705
24.75, 101641.16, 0.27,-0.57, 9.64, 6710
24.75, 101641.16, 0.23,-0.52, 9.62, 6715
24.75, 101641.82, 0.17,-0.59, 9.62, 6720
24.75, 101641.82, 0.15,-0.61, 9.54, 6725
24.75, 101641.82, 0.17,-0.59, 9.48, 6730
24.75, 101641.82, 0.15,-0.67, 9.69, 6735
24.75, 101641.82, 0.15,-0.59, 9.60, 6740
24.75, 101641.82, 0.19,-0.50, 9.58, 6745
24.75, 101641.82, 0.21,-0.50, 9.62, 6750
24.75, 101644.06, 0.27,-0.48, 9.64, 6755
24.75, 101644.06, 0.25,-0.59, 9.66, 6760
24.75, 101644.06, 0.23,-0.56, 9.60, 6765
24.75, 101644.06, 0.27,-0.50, 9.62, 6770
24.75, 101644.06, 0.25,-0.59, 9.62, 6775
24.75, 101644.06, 0.17,-0.59, 9.62, 6780
24.75, 101644.06, 0.15,-0.59, 9.60, 6785
24.75, 101643.89, 0.27,-0.61, 9.62, 6790
24.75, 101643.89, 0.25,-0.59, 9.66, 6795
24.75, 101643.89, 0.31,-0.59, 9.62, 6800
24.75, 101643.89, 0.31,-0.54, 9.62, 6805
24.75, 101643.89, 0.25,-0.56, 9.60, 6810
24.75, 101643.89, 0.21,-0.52, 9.58, 6815
24.75, 101643.89, 0.23,-0.50, 9.62, 6820
24.75, 101642.97, 0.21,-0.59, 9.71, 6825
24.75, 101642.97, 0.23,-0.61, 9.60, 6830
24.75, 101642.97, 0.23,-0.59, 9.66, 6835
24.75, 101642.97, 0.21,-0.59, 9.62, 6840
24.75, 101642.97, 0.27,-0.57, 9.58, 6845
24.75, 101642.97, 0.17,-0.61, 9.52, 6850
24.75, 101642.97, 0.19,-0.59, 9.62, 6855
24.75, 101642.64, 0.21,-0.57, 9.71, 6860
24.75, 101642.64, 0.25,-0.52, 9.64, 6865
24.75, 101642.64, 0.19,-0.59, 9.64, 6870
24.75, 101642.64, 0.23,-0.59, 9.62, 6875
24.75, 101642.64, 0.23,-0.61, 9.67, 6880
24.75, 101642.64, 0.27,-0.65, 9.69, 6885
24.75, 101642.64, 0.21,-0.61, 9.64, 6890
24.75, 101643.14, 0.23,-0.57, 9.58, 6895
24.75, 101643.14, 0.27,-0.57, 9.62, 6900
24.75, 101643.14, 0.21,-0.56, 9.58, 6905
24.75, 101643.14, 0.23,-0.54, 9.66, 6910
24.75, 101643.14, 0.21,-0.52, 9.67, 6915
24.75, 101643.14, 0.19,-0.50, 9.60, 6920
24.75, 101643.14, 0.19,-0.57, 9.60, 6925
24.75, 101643.47, 0.21,-0.59, 9.62, 6930
24.75, 101643.47, 0.19,-0.57, 9.66, 6935
24.75, 101643.47, 0.25,-0.56, 9.54, 6940
24.75, 101643.47, 0.29,-0.50, 9.71, 6945
24.75, 101643.47, 0.17,-0.50, 9.52, 6950
24.75, 101643.47, 0.15,-0.56, 9.60, 6955
24.75, 101643.47, 0.21,-0.59, 9.79, 6960
24.75, 101644.06, 0.31,-0.61, 9.73, 6965
24.75, 101644.06, 0.29,-0.61, 9.69, 6970
24.75, 101644.06, 0.25,-0.63, 9.69, 6975
24.75, 101644.06, 0.25,-0.56, 9.66, 6980
24.75, 101644.06, 0.29,-0.57, 9.73, 6985
24.75, 101644.06, 0.27,-0.54, 9.69, 6990
24.75, 101644.06, 0.23,-0.57, 9.71, 6995
24.75, 101644.06, 0.25,-0.63, 9.58, 7000
24.75, 101640.28, 0.23,-0.63, 9.64, 7005
24.75, 101640.28, 0.23,-0.65, 9.67, 7010
24.75, 101640.28, 0.21,-0.59, 9.64, 7015
24.75, 101640.28, 0.33,-0.52, 9.58, 7020
24.75, 101640.28, 0.31,-0.54, 9.62, 7025
24.75, 101640.28, 0.25,-0.54, 9.64, 7030
24.75, 101640.28, 0.33,-0.59, 9.62, 7035
24.75, 101640.99, 0.27,-0.52, 9.64, 7040
24.75, 101640.99, 0.25,-0.59, 9.58, 7045
24.75, 101640.99, 0.17,-0.65, 9.58, 7050
24.75, 101640.99, 0.15,-0.59, 9.50, 7055
24.75, 101640.99, 0.21,-0.48, 9.62, 7060
24.75, 101640.99, 0.19,-0.57, 9.67, 7065
24.75, 101640.99, 0.23,-0.67, 9.75, 7070
24.75, 101641.91, 0.25,-0.56, 9.56, 7075
24.75, 101641.91, 0.23,-0.54, 9.67, 7080
24.75, 101641.91, 0.29,-0.52, 9.58, 7085
24.75, 101641.91, 0.25,-0.61, 9.54, 7090
24.75, 101641.91, 0.25,-0.61, 9.56, 7095
24.75, 101641.91, 0.23,-0.59, 9.64, 7100
24.75, 101642.41, 0.21,-0.57, 9.66, 7107
24.75, 101642.41, 0.21,-0.59, 9.60, 7112
24.75, 101642.41, 0.29,-0.59, 9.62, 7117
24.75, 101642.41, 0.31,-0.59, 9.60, 7122
24.75, 101642.41, 0.21,-0.56, 9.62, 7127
24.75, 101642.41, 0.19,-0.56, 9.62, 7132
24.75, 101642.41, 0.21,-0.56, 9.60, 7137
24.75, 101643.06, 0.29,-0.54, 9.67, 7142
24.75, 101643.06, 0.31,-0.67, 9.52, 7147
24.75, 101643.06, 0.25,-0.56, 9.67, 7152
24.75, 101643.06, 0.25,-0.54, 9.85, 7157
24.75, 101643.06, 0.17,-0.52, 9.75, 7162
24.75, 101643.06, 0.15,-0.54, 9.60, 7167
24.75, 101643.06, 0.21,-0.52, 9.67, 7172
24.75, 101643.06, 0.21,-0.56, 9.64, 7177
24.75, 101643.89, 0.27,-0.57, 9.64, 7182
24.75, 101643.89, 0.25,-0.61, 9.60, 7187
24.75, 101643.89, 0.23,-0.59, 9.60, 7192
24.75, 101643.89, 0.25,-0.52, 9.62, 7197
24.75, 101643.89, 0.27,-0.52, 9.56, 7202
24.75, 101643.89, 0.19,-0.57, 9.58, 7207
24.75, 101643.89, 0.29,-0.57, 9.60, 7212
24.75, 101641.47, 0.23,-0.54, 9.56, 7217
24.75, 101641.47, 0.25,-0.54, 9.54, 7222
24.75, 101641.47, 0.17,-0.54, 9.60, 7227
24.75, 101641.47, 0.17,-0.50, 9.62, 7232
24.75, 101641.47, 0.15,-0.54, 9.64, 7237
24.75, 101641.47, 0.21,-0.59, 9.54, 7242
24.75, 101641.47, 0.21,-0.56, 9.64, 7247
24.75, 101644.11, 0.23,-0.57, 9.66, 7252
24.75, 101644.11, 0.13,-0.61, 9.69, 7257
24.75, 101644.11, 0.15,-0.54, 9.71, 7262
24.75, 101644.11, 0.23,-0.48, 9.87, 7267
24.75, 101644.11, 0.17,-0.46, 9.75, 7272
24.75, 101644.11, 0.21,-0.54, 9.62, 7277
24.75, 101644.11, 0.29,-0.52, 9.60, 7282
24.75, 101642.85, 0.29,-0.56, 9.56, 7287
24.75, 101642.85, 0.29,-0.56, 9.54, 7292
24.75, 101642.85, 0.31,-0.54, 9.66, 7297
24.75, 101642.85, 0.23,-0.59, 9.58, 7302
24.75, 101642.85, 0.25,-0.57, 9.60, 7307
24.75, 101642.85, 0.21,-0.59, 9.64, 7312
24.75, 101642.85, 0.21,-0.57, 9.67, 7317
24.75, 101641.33, 0.23,-0.59, 9.62, 7322
24.75, 101641.33, 0.23,-0.52, 9.56, 7327
24.75, 101641.33, 0.23,-0.57, 9.64, 7332
24.75, 101641.33, 0.31,-0.52, 9.60, 7337
24.75, 101641.33, 0.17,-0.56, 9.69, 7342
24.75, 101641.33, 0.25,-0.61, 9.67, 7347
24.75, 101641.33, 0.29,-0.59, 9.69, 7352
24.75, 101640.59, 0.31,-0.56, 9.66, 7357
24.75, 101640.59, 0.31,-0.61, 9.58, 7362
24.75, 101640.59, 0.19,-0.52, 9.73, 7367
24.75, 101640.59, 0.21,-0.54, 9.62, 7372
24.75, 101640.59, 0.25,-0.50, 9.39, 7377
24.75, 101640.59, 0.27,-0.56, 9.60, 7382
24.75, 101640.59, 0.29,-0.52, 9.58, 7387
24.75, 101640.81, 0.33,-0.61, 9.58, 7392
24.75, 101640.81, 0.33,-0.63, 9.56, 7397
24.75, 101640.81, 0.23,-0.63, 9.62, 7402
24.75, 101640.81, 0.19,-0.56, 9.58, 7407
24.75, 101640.81, 0.19,-0.67, 9.58, 7412
24.75, 101640.81, 0.21,-0.59, 9.62, 7417
24.75, 101640.81, 0.27,-0.63, 9.71, 7422
24.75, 101640.26, 0.23,-0.61, 9.62, 7427
24.75, 101640.26, 0.19,-0.63, 9.58, 7432
24.75, 101640.26, 0.25,-0.50, 9.60, 7437
24.75, 101640.26, 0.25,-0.56, 9.64, 7442
24.75, 101640.26, 0.19,-0.57, 9.62, 7447
24.75, 101640.26, 0.21,-0.56, 9.64, 7452
24.75, 101640.26, 0.25,-0.52, 9.64, 7457
24.75, 101641.91, 0.25,-0.54, 9.64, 7462
24.75, 101641.91, 0.21,-0.56, 9.67, 7467
24.75, 101641.91, 0.23,-0.52, 9.64, 7472
24.75, 101641.91, 0.25,-0.52, 9.69, 7477
24.75, 101641.91, 0.21,-0.59, 9.50, 7482
24.75, 101641.91, 0.29,-0.44, 9.56, 7487
24.75, 101641.91, 0.29,-0.59, 9.75, 7492
24.75, 101642.41, 0.29,-0.57, 9.39, 7497
24.75, 101642.41, 0.29,-0.52, 9.64, 7502
24.75, 101642.41, 0.23,-0.52, 9.66, 7507
24.75, 101642.41, 0.21,-0.54, 9.69, 7512
24.75, 101642.41, 0.23,-0.57, 9.60, 7517
24.75, 101642.41, 0.15,-0.54, 9.62, 7522
24.75, 101642.41, 0.17,-0.48, 9.64, 7527
24.75, 101642.41, 0.15,-0.54, 9.66, 7532
24.75, 101640.77, 0.21,-0.61, 9.58, 7537
24.75, 101640.77, 0.21,-0.56, 9.60, 7542
24.75, 101640.77, 0.27,-0.54, 9.64, 7547
24.75, 101640.77, 0.19,-0.57, 9.62, 7552
24.75, 101640.77, 0.19,-0.59, 9.58, 7557
24.75, 101640.77, 0.19,-0.57, 9.62, 7562
24.75, 101640.77, 0.27,-0.56, 9.62, 7567
24.75, 101639.78, 0.27,-0.65, 9.60, 7572
24.75, 101639.78, 0.21,-0.65, 9.69, 7577
24.75, 101639.78, 0.27,-0.65, 9.58, 7582
24.75, 101639.78, 0.25,-0.57, 9.62, 7587
24.75, 101639.78, 0.25,-0.57, 9.56, 7592
24.75, 101639.78, 0.27,-0.56, 9.67, 7597
24.75, 101639.78, 0.33,-0.56, 9.73, 7602
24.75, 101641.42, 0.23,-0.56, 9.69, 7610
24.75, 101641.42, 0.21,-0.56, 9.66, 7614
24.75, 101641.42, 0.21,-0.61, 9.62, 7619
24.75, 101641.42, 0.31,-0.65, 9.60, 7624
24.75, 101641.42, 0.25,-0.57, 9.67, 7629
24.75, 101641.42, 0.21,-0.54, 9.64, 7634
24.75, 101642.73, 0.19,-0.52, 9.60, 7639
24.75, 101642.73, 0.27,-0.52, 9.62, 7644
24.75, 101642.73, 0.25,-0.52, 9.64, 7649
24.75, 101642.73, 0.27,-0.57, 9.64, 7654
24.75, 101642.73, 0.21,-0.59, 9.67, 7659
24.75, 101642.73, 0.23,-0.56, 9.64, 7664
24.75, 101642.73, 0.15,-0.54, 9.64, 7669
24.75, 101642.73, 0.21,-0.56, 9.62, 7674
24.75, 101640.59, 0.13,-0.52, 9.67, 7679
24.75, 101640.59, 0.15,-0.50, 9.75, 7684
24.75, 101640.59, 0.34,-0.56, 9.89, 7689
24.75, 101640.59, 0.27,-0.56, 9.69, 7694
24.75, 101640.59, 0.19,-0.59, 9.66, 7699
24.75, 101640.59, 0.19,-0.63, 9.56, 7704
24.75, 101640.59, 0.25,-0.59, 9.58, 7709
24.75, 101642.36, 0.15,-0.63, 9.56, 7714
24.75, 101642.36, 0.23,-0.56, 9.66, 7719
24.75, 101642.36, 0.23,-0.54, 9.75, 7724
24.75, 101642.36, 0.27,-0.57, 9.66, 7729
24.75, 101642.36, 0.21,-0.54, 9.58, 7734
24.75, 101642.36, 0.21,-0.56, 9.58, 7739
24.75, 101642.36, 0.17,-0.56, 9.60, 7744
24.75, 101643.34, 0.19,-0.56, 9.62, 7749
24.75, 101643.34, 0.19,-0.54, 9.62, 7754
24.75, 101643.34, 0.19,-0.56, 9.60, 7759
24.75, 101643.34, 0.25,-0.59, 9.64, 7764
24.75, 101643.34, 0.27,-0.52, 9.67, 7769
24.75, 101643.34, 0.21,-0.50, 9.66, 7774
24.75, 101643.34, 0.17,-0.52, 9.67, 7779
24.75, 101640.48, 0.23,-0.56, 9.60, 7784
24.75, 101640.48, 0.17,-0.54, 9.67, 7789
24.75, 101640.48, 0.29,-0.52, 9.67, 7794
24.75, 101640.48, 0.23,-0.56, 9.46, 7799
24.75, 101640.48, 0.19,-0.69, 9.62, 7804
24.75, 101640.48, 0.23,-0.33, 9.60, 7809
24.75, 101640.48, 0.34,-0.56, 9.56, 7814
24.75, 101636.54, 0.27,-0.56, 9.33, 7819
24.75, 101636.54, 0.15,-0.61, 9.56, 7824
24.75, 101636.54, 0.21,-0.56, 9.69, 7829
24.75, 101636.54, 0.27,-0.57, 9.64, 7834
24.75, 101636.54, 0.29,-0.57, 9.60, 7839
24.75, 101636.54, 0.23,-0.52, 9.60, 7844
24.75, 101636.54, 0.21,-0.56, 9.62, 7849
24.75, 101639.27, 0.27,-0.67, 9.62, 7854
24.75, 101639.27, 0.25,-0.56, 9.69, 7859
24.75, 101639.27, 0.19,-0.56, 9.64, 7864
24.75, 101639.27, 0.19,-0.54, 9.62, 7869
24.75, 101639.27, 0.25,-0.52, 9.66, 7874
24.75, 101639.27, 0.25,-0.57, 9.67, 7879
24.75, 101639.27, 0.23,-0.50, 9.62, 7884
24.75, 101638.45, 0.23,-0.54, 9.58, 7889
24.75, 101638.45, 0.23,-0.54, 9.71, 7894
24.75, 101638.45, 0.27,-0.52, 9.54, 7899
24.75, 101638.45, 0.21,-0.56, 9.66, 7904
24.75, 101638.45, 0.19,-0.56, 9.54, 7909
24.75, 101638.45, 0.27,-0.57, 9.60, 7914
24.75, 101638.45, 0.23,-0.56, 9.73, 7919
24.75, 101640.26, 0.23,-0.59, 9.60, 7924
24.75, 101640.26, 0.17,-0.65, 9.50, 7929
24.75, 101640.26, 0.23,-0.61, 9.58, 7934
24.75, 101640.26, 0.23,-0.59, 9.66, 7939
24.75, 101640.26, 0.25,-0.52, 9.71, 7944
24.75, 101640.26, 0.25,-0.69, 9.58, 7949
24.75, 101640.26, 0.17,-0.65, 9.64, 7954
24.75, 101637.69, 0.29,-0.54, 9.66, 7959
24.75, 101637.69, 0.27,-0.54, 9.64, 7964
24.75, 101637.69, 0.19,-0.56, 9.54, 7969
24.75, 101637.69, 0.21,-0.56, 9.64, 7974
24.75, 101637.69, 0.25,-0.54, 9.62, 7979
24.75, 101637.69, 0.23,-0.56, 9.56, 7984
24.75, 101637.69, 0.23,-0.57, 9.64, 7989
24.75, 101640.26, 0.19,-0.56, 9.69, 7994
24.75, 101640.26, 0.15,-0.61, 9.66, 7999
24.75, 101640.26, 0.19,-0.63, 9.66, 8004
24.75, 101640.26, 0.19,-0.65, 9.56, 8009
24.75, 101640.26, 0.29,-0.65, 9.58, 8014
24.75, 101640.26, 0.27,-0.57, 9.52, 8019
24.75, 101640.26, 0.25,-0.56, 9.60, 8024
24.75, 101641.53, 0.33,-0.56, 9.58, 8029
24.75, 101641.53, 0.13,-0.63, 9.69, 8034
24.75, 101641.53, 0.27,-0.61, 9.54, 8039
24.75, 101641.53, 0.15,-0.61, 9.66, 8044
24.75, 101641.53, 0.17,-0.57, 9.62, 8049
24.75, 101641.53, 0.25,-0.56, 9.62, 8054
24.75, 101641.53, 0.19,-0.59, 9.62, 8059
24.75, 101641.53, 0.17,-0.57, 9.67, 8064
24.75, 101638.61, 0.17,-0.57, 9.67, 8069
24.75, 101638.61, 0.15,-0.59, 9.64, 8074
24.75, 101638.61, 0.21,-0.59, 9.67, 8079
24.75, 101638.61, 0.21,-0.57, 9.60, 8084
24.75, 101638.61, 0.21,-0.63, 9.58, 8089
24.75, 101638.61, 0.23,-0.59, 9.62, 8094
24.75, 101638.61, 0.29,-0.50, 9.60, 8099
24.75, 101642.30, 0.21,-0.59, 9.67, 8104
24.75, 101642.30, 0.21,-0.52, 9.64, 8112
24.75, 101642.30, 0.31,-0.57, 9.73, 8116
24.75, 101642.30, 0.19,-0.61, 9.75, 8121
24.75, 101642.30, 0.23,-0.54, 9.66, 8126
24.75, 101642.30, 0.23,-0.56, 9.35, 8131
24.75, 101642.69, 0.25,-0.52, 9.45, 8136
24.75, 101642.69, 0.27,-0.50, 9.60, 8141
24.75, 101642.69, 0.23,-0.57, 9.58, 8146
24.75, 101642.69, 0.33,-0.63, 9.58, 8151
24.75, 101642.69, 0.34,-0.59, 9.62, 8156
24.75, 101642.69, 0.29,-0.61, 9.71, 8161
24.75, 101642.69, 0.31,-0.56, 9.66, 8166
24.75, 101639.11, 0.25,-0.54, 9.62, 8171
24.75, 101639.11, 0.25,-0.65, 9.60, 8176
24.75, 101639.11, 0.23,-0.57, 9.66, 8181
24.75, 101639.11, 0.25,-0.56, 9.64, 8186
24.75, 101639.11, 0.25,-0.61, 9.60, 8191
24.75, 101639.11, 0.19,-0.52, 9.62, 8196
24.75, 101639.11, 0.23,-0.61, 9.60, 8201
24.75, 101639.11, 0.21,-0.61, 9.52, 8206
24.75, 101641.04, 0.23,-0.57, 9.60, 8211
24.75, 101641.04, 0.25,-0.56, 9.60, 8216
24.75, 101641.04, 0.19,-0.57, 9.60, 8221
24.75, 101641.04, 0.23,-0.59, 9.46, 8226
24.75, 101641.04, 0.15,-0.54, 9.50, 8231
24.75, 101641.04, 0.13,-0.46, 9.41, 8236
24.75, 101641.04, 0.21,-0.57, 9.62, 8241
24.75, 101641.92, 0.23,-0.59, 9.43, 8246
24.75, 101641.92, 0.29,-0.48, 9.52, 8251
24.75, 101641.92, 0.19,-0.54, 9.56, 8256
24.75, 101641.92, 0.21,-0.56, 9.60, 8261
24.75, 101641.92, 0.25,-0.59, 9.66, 8266
24.75, 101641.92, 0.25,-0.52, 9.62, 8271
24.75, 101641.92, 0.25,-0.56, 9.66, 8276
24.75, 101642.51, 0.25,-0.52, 9.67, 8281
24.75, 101642.51, 0.23,-0.54, 9.60, 8286
24.75, 101642.51, 0.19,-0.59, 9.60, 8291
24.75, 101642.51, 0.29,-0.57, 9.67, 8296
24.75, 101642.51, 0.25,-0.54, 9.69, 8301
24.75, 101642.51, 0.25,-0.61, 9.64, 8306
24.75, 101642.51, 0.23,-0.57, 9.60, 8311
24.75, 101642.85, 0.25,-0.57, 9.60, 8316
24.75, 101642.85, 0.27,-0.59, 9.62, 8321
24.75, 101642.85, 0.25,-0.57, 9.60, 8326
24.75, 101642.85, 0.29,-0.67, 9.50, 8331
24.75, 101642.85, 0.27,-0.63, 9.66, 8336
24.75, 101642.85, 0.25,-0.59, 9.60, 8341
24.75, 101642.85, 0.17,-0.57, 9.46, 8346
24.75, 101641.70, 0.25,-0.57, 9.56, 8351
24.75, 101641.70, 0.29,-0.56, 9.73, 8356
24.75, 101641.70, 0.29,-0.57, 9.75, 8361
24.75, 101641.70, 0.19,-0.59, 9.66, 8366
24.75, 101641.70, 0.25,-0.61, 9.69, 8371
24.75, 101641.70, 0.23,-0.56, 9.60, 8376
24.75, 101641.70, 0.23,-0.56, 9.60, 8381
24.75, 101640.92, 0.23,-0.50, 9.64, 8386
24.75, 101640.92, 0.21,-0.59, 9.60, 8391
24.75, 101640.92, 0.23,-0.54, 9.62, 8396
24.75, 101640.92, 0.27,-0.57, 9.62, 8401
24.75, 101640.92, 0.23,-0.57, 9.66, 8406
24.75, 101640.92, 0.21,-0.61, 9.62, 8411
24.75, 101640.92, 0.31,-0.63, 9.60, 8416
24.75, 101640.88, 0.25,-0.57, 9.62, 8421
24.75, 101640.88, 0.27,-0.56, 9.58, 8426
24.75, 101640.88, 0.25,-0.56, 9.56, 8431
24.75, 101640.88, 0.27,-0.61, 9.54, 8436
24.75, 101640.88, 0.25,-0.52, 9.58, 8441
24.75, 101640.88, 0.21,-0.54, 9.58, 8446
24.75, 101640.88, 0.19,-0.50, 9.64, 8451
24.75, 101643.02, 0.11,-0.57, 9.60, 8456
24.75, 101643.02, 0.23,-0.59, 9.58, 8461
24.75, 101643.02, 0.31,-0.56, 9.56, 8466
24.75, 101643.02, 0.25,-0.56, 9.52, 8471
24.75, 101643.02, 0.25,-0.52, 9.69, 8476
24.75, 101643.02, 0.27,-0.57, 9.69, 8481
24.75, 101643.02, 0.25,-0.65, 9.73, 8486
24.75, 101641.25, 0.21,-0.61, 9.67, 8491
24.75, 101641.25, 0.23,-0.63, 9.71, 8496
24.75, 101641.25, 0.23,-0.54, 9.71, 8501
24.75, 101641.25, 0.31,-0.54, 9.60, 8506
24.75, 101641.25, 0.34,-0.56, 9.62, 8511
24.75, 101641.25, 0.17,-0.54, 9.62, 8516
24.75, 101641.25, 0.21,-0.50, 9.60, 8521
24.75, 101641.31, 0.19,-0.50, 9.67, 8526
24.75, 101641.31, 0.17,-0.59, 9.62, 8531
24.75, 101641.31, 0.23,-0.61, 9.66, 8536
24.75, 101641.31, 0.23,-0.63, 9.62, 8541
24.75, 101641.31, 0.25,-0.59, 9.54, 8546
24.75, 101641.31, 0.25,-0.57, 9.58, 8551
24.75, 101641.31, 0.15,-0.61, 9.64, 8556
24.75, 101641.14, 0.23,-0.61, 9.71, 8561
24.75, 101643.83, 0.31,-0.54, 9.58, 8566
24.75, 101643.83, 0.25,-0.56, 9.52, 8571
24.75, 101643.83, 0.29,-0.63, 9.66, 8576
24.75, 101643.83, 0.29,-0.52, 9.52, 8581
24.75, 101643.83, 0.25,-0.56, 9.60, 8586
24.75, 101643.83, 0.25,-0.52, 9.75, 8591
24.75, 101643.83, 0.19,-0.54, 9.64, 8596
24.75, 101642.42, 0.15,-0.59, 9.60, 8601
24.75, 101642.42, 0.25,-0.63, 9.64, 8606
24.75, 101642.42, 0.19,-0.54, 9.58, 8614
24.75, 101642.42, 0.25,-0.61, 9.58, 8618
24.75, 101642.42, 0.25,-0.50, 9.62, 8623
24.75, 101642.42, 0.23,-0.57, 9.62, 8628
24.75, 101640.70, 0.23,-0.59, 9.66, 8633
24.75, 101640.70, 0.25,-0.57, 9.67, 8638
24.75, 101640.70, 0.21,-0.61, 9.64, 8643
24.75, 101640.70, 0.23,-0.56, 9.69, 8648
24.75, 101640.70, 0.21,-0.56, 9.67, 8653
24.75, 101640.70, 0.25,-0.61, 9.54, 8658
24.75, 101640.70, 0.23,-0.67, 9.71, 8663
24.75, 101641.59, 0.17,-0.56, 9.77, 8668
24.75, 101641.59, 0.25,-0.56, 9.45, 8673
24.75, 101641.59, 0.23,-0.54, 9.54, 8678
24.75, 101641.59, 0.25,-0.46, 9.56, 8683
24.75, 101641.59, 0.29,-0.54, 9.62, 8688
24.75, 101641.59, 0.23,-0.50, 9.64, 8693
24.75, 101641.59, 0.25,-0.52, 9.66, 8698
24.75, 101642.42, 0.21,-0.56, 9.62, 8703
24.75, 101642.42, 0.25,-0.52, 9.54, 8708
24.75, 101642.42, 0.29,-0.50, 9.62, 8713
24.75, 101642.42, 0.27,-0.48, 9.66, 8718
24.75, 101642.42, 0.25,-0.50, 9.58, 8723
24.75, 101642.42, 0.17,-0.59, 9.62, 8728
24.75, 101642.42, 0.25,-0.61, 9.60, 8733
24.75, 101642.42, 0.27,-0.59, 9.62, 8738
24.75, 101642.36, 0.23,-0.57, 9.60, 8743
24.75, 101642.36, 0.23,-0.52, 9.64, 8748
24.75, 101642.36, 0.21,-0.52, 9.58, 8753
24.75, 101642.36, 0.21,-0.57, 9.58, 8758
24.75, 101642.36, 0.15,-0.54, 9.52, 8763
24.75, 101642.36, 0.23,-0.57, 9.66, 8768
24.75, 101642.36, 0.25,-0.61, 9.54, 8773
24.75, 101642.69, 0.23,-0.73, 9.73, 8778
24.75, 101642.69, 0.25,-0.67, 9.64, 8783
24.75, 101642.69, 0.27,-0.50, 9.79, 8788
24.75, 101642.69, 0.21,-0.63, 9.69, 8793
24.75, 101642.69, 0.23,-0.57, 9.54, 8798
24.75, 101642.69, 0.31,-0.56, 9.50, 8803
24.75, 101642.69, 0.29,-0.48, 9.56, 8808
24.75, 101640.16, 0.25,-0.48, 9.58, 8813
24.75, 101640.16, 0.21,-0.54, 9.54, 8818
24.75, 101640.16, 0.21,-0.57, 9.66, 8823
24.75, 101640.16, 0.19,-0.54, 9.58, 8828
24.75, 101640.16, 0.21,-0.54, 9.60, 8833
24.75, 101640.16, 0.19,-0.59, 9.69, 8838
24.75, 101640.16, 0.23,-0.59, 9.67, 8843
24.75, 101642.09, 0.15,-0.57, 9.66, 8848
24.75, 101642.09, 0.21,-0.54, 9.71, 8853
24.75, 101642.09, 0.29,-0.61, 9.66, 8858
24.75, 101642.09, 0.27,-0.65, 9.56, 8863
24.75, 101642.09, 0.19,-0.59, 9.62, 8868
24.75, 101642.09, 0.23,-0.52, 9.67, 8873
24.75, 101642.09, 0.33,-0.52, 9.64, 8878
24.75, 101641.53, 0.31,-0.52, 9.60, 8883
24.75, 101641.53, 0.21,-0.61, 9.58, 8888
24.75, 101641.53, 0.25,-0.57, 9.48, 8893
24.75, 101641.53, 0.27,-0.54, 9.64, 8898
24.75, 101641.53, 0.25,-0.59, 9.66, 8903
24.75, 101641.53, 0.25,-0.48, 9.66, 8908
24.75, 101641.53, 0.23,-0.46, 9.56, 8913
24.75, 101640.55, 0.25,-0.50, 9.62, 8918
24.75, 101640.55, 0.27,-0.56, 9.58, 8923
24.75, 101640.55, 0.23,-0.50, 9.58, 8928
24.75, 101640.55, 0.19,-0.54, 9.58, 8933
24.75, 101640.55, 0.19,-0.61, 9.64, 8938
24.75, 101640.55, 0.23,-0.56, 9.64, 8943
24.75, 101640.55, 0.19,-0.56, 9.62, 8948
24.75, 101640.77, 0.25,-0.57, 9.64, 8953
24.75, 101640.77, 0.25,-0.52, 9.66, 8958
24.75, 101640.77, 0.21,-0.59, 9.67, 8963
24.75, 101640.77, 0.21,-0.56, 9.64, 8968
24.75, 101640.77, 0.23,-0.54, 9.67, 8973
24.75, 101640.77, 0.21,-0.56, 9.66, 8978
24.75, 101640.77, 0.33,-0.63, 9.58, 8983
24.75, 101638.73, 0.31,-0.61, 9.66, 8988
24.75, 101638.73, 0.23,-0.61, 9.58, 8993
24.75, 101638.73, 0.25,-0.54, 9.60, 8998
24.75, 101638.73, 0.21,-0.63, 9.79, 9003
24.75, 101638.73, 0.29,-0.54, 9.77, 9008
24.75, 101638.73, 0.27,-0.59, 9.62, 9013
24.75, 101638.73, 0.21,-0.59, 9.58, 9018
24.75, 101639.94, 0.25,-0.59, 9.62, 9023
24.75, 101639.94, 0.21,-0.50, 9.60, 9028
24.75, 101639.94, 0.25,-0.57, 9.66, 9033
24.75, 101639.94, 0.23,-0.56, 9.66, 9038
24.75, 101639.94, 0.21,-0.56, 9.60, 9043
24.75, 101639.94, 0.21,-0.57, 9.62, 9048
24.75, 101639.94, 0.19,-0.56, 9.60, 9053
24.75, 101639.88, 0.15,-0.57, 9.62, 9058
24.75, 101639.88, 0.17,-0.56, 9.64, 9063
24.75, 101639.88, 0.15,-0.54, 9.64, 9068
24.75, 101639.88, 0.21,-0.59, 9.67, 9073
24.75, 101639.88, 0.19,-0.54, 9.60, 9078
24.75, 101639.88, 0.19,-0.56, 9.67, 9083
24.75, 101639.88, 0.23,-0.59, 9.66, 9088
24.75, 101639.88, 0.23,-0.54, 9.67, 9093
24.75, 101638.06, 0.15,-0.50, 9.69, 9098
24.75, 101638.06, 0.23,-0.54, 9.45, 9103
24.75, 101638.06, 0.27,-0.54, 9.62, 9108
24.75, 101638.06, 0.23,-0.56, 9.60, 9120
24.75, 101638.06, 0.21,-0.59, 9.60, 9124
24.75, 101643.28, 0.19,-0.59, 9.60, 9129
24.75, 101643.28, 0.23,-0.56, 9.58, 9134
24.75, 101643.28, 0.27,-0.61, 9.62, 9139
24.75, 101643.28, 0.25,-0.56, 9.69, 9144
24.75, 101643.28, 0.29,-0.54, 9.66, 9149
24.75, 101643.28, 0.23,-0.46, 9.64, 9154
24.75, 101643.28, 0.25,-0.54, 9.62, 9159
24.75, 101643.28, 0.15,-0.52, 9.56, 9164
24.75, 101641.69, 0.15,-0.59, 9.67, 9169
24.75, 101641.69, 0.17,-0.57, 9.62, 9174
24.75, 101641.69, 0.23,-0.52, 9.52, 9179
24.75, 101641.69, 0.19,-0.52, 9.60, 9184
24.75, 101641.69, 0.13,-0.50, 9.66, 9189
24.75, 101641.69, 0.17,-0.56, 9.67, 9194
24.75, 101641.69, 0.15,-0.57, 9.62, 9199
24.75, 101640.38, 0.19,-0.61, 9.58, 9204
24.75, 101640.38, 0.19,-0.59, 9.58, 9209
24.75, 101640.38, 0.25,-0.57, 9.58, 9214
24.75, 101640.38, 0.21,-0.54, 9.60, 9219
24.75, 101640.38, 0.21,-0.57, 9.58, 9224
24.75, 101640.38, 0.21,-0.54, 9.60, 9229
24.75, 101640.38, 0.21,-0.54, 9.62, 9234
24.75, 101640.11, 0.25,-0.54, 9.60, 9239
24.75, 101640.11, 0.21,-0.57, 9.60, 9244
24.75, 101640.11, 0.15,-0.59, 9.64, 9249
24.75, 101640.11, 0.21,-0.50, 9.58, 9254
24.75, 101640.11, 0.31,-0.57, 9.73, 9259
24.75, 101640.11, 0.27,-0.57, 9.73, 9264
24.75, 101640.11, 0.25,-0.54, 9.83, 9269
24.75, 101640.77, 0.27,-0.59, 9.60, 9274
24.75, 101640.77, 0.31,-0.56, 9.67, 9279
24.75, 101640.77, 0.27,-0.56, 9.56, 9284
24.75, 101640.77, 0.21,-0.59, 9.67, 9289
24.75, 101640.77, 0.27,-0.56, 9.62, 9294
24.75, 101640.77, 0.23,-0.54, 9.64, 9299
24.75, 101640.77, 0.25,-0.59, 9.67, 9304
24.75, 101640.03, 0.27,-0.61, 9.64, 9309
24.75, 101640.03, 0.13,-0.52, 9.66, 9314
24.75, 101640.03, 0.21,-0.57, 9.71, 9319
24.75, 101640.03, 0.27,-0.61, 9.64, 9324
24.75, 101640.03, 0.19,-0.61, 9.60, 9329
24.75, 101640.03, 0.15,-0.57, 9.66, 9334
24.75, 101640.03, 0.25,-0.54, 9.64, 9339
24.75, 101638.95, 0.17,-0.61, 9.64, 9344
24.75, 101638.95, 0.17,-0.57, 9.69, 9349
24.75, 101638.95, 0.21,-0.50, 9.60, 9354
24.75, 101638.95, 0.21,-0.52, 9.64, 9359
24.75, 101638.95, 0.19,-0.57, 9.58, 9364
24.75, 101638.95, 0.23,-0.63, 9.56, 9369
24.75, 101638.95, 0.27,-0.61, 9.73, 9374
24.75, 101640.70, 0.25,-0.56, 9.67, 9379
24.75, 101640.70, 0.25,-0.63, 9.60, 9384
24.75, 101640.70, 0.27,-0.63, 9.67, 9389
24.75, 101640.70, 0.23,-0.65, 9.79, 9394
24.75, 101640.70, 0.25,-0.61, 9.73, 9399
24.75, 101640.70, 0.15,-0.61, 9.45, 9404
24.75, 101640.70, 0.10,-0.57, 9.56, 9409
24.75, 101642.18, 0.23,-0.61, 9.62, 9414
24.75, 101642.18, 0.17,-0.61, 9.62, 9419
24.75, 101642.18, 0.19,-0.57, 9.62, 9424
24.75, 101642.18, 0.27,-0.61, 9.60, 9429
24.75, 101642.18, 0.21,-0.63, 9.60, 9434
24.75, 101642.18, 0.27,-0.59, 9.62, 9439
24.75, 101642.18, 0.25,-0.57, 9.62, 9444
24.75, 101643.28, 0.27,-0.59, 9.62, 9449
24.75, 101643.28, 0.19,-0.59, 9.62, 9454
24.75, 101643.28, 0.27,-0.57, 9.62, 9459
24.75, 101643.28, 0.19,-0.61, 9.64, 9464
24.75, 101643.28, 0.19,-0.59, 9.64, 9469
24.75, 101643.28, 0.19,-0.63, 9.62, 9474
24.75, 101643.28, 0.19,-0.56, 9.48, 9479
24.75, 101640.86, 0.17,-0.56, 9.56, 9484
24.75, 101640.86, 0.19,-0.56, 9.52, 9489
24.75, 101640.86, 0.21,-0.50, 9.71, 9494
24.75, 101640.86, 0.15,-0.52, 9.64, 9499
24.75, 101640.86, 0.15,-0.73, 9.64, 9504
24.75, 101640.86, 0.19,-0.34, 9.66, 9509
24.75, 101640.86, 0.23,-0.63, 9.62, 9514
24.75, 101638.88, 0.29,-0.61, 9.64, 9519
24.75, 101638.88, 0.15,-0.57, 9.64, 9524
24.75, 101638.88, 0.23,-0.52, 9.64, 9529
24.75, 101638.88, 0.25,-0.59, 9.69, 9534
24.75, 101638.88, 0.23,-0.63, 9.62, 9539
24.75, 101638.88, 0.19,-0.56, 9.56, 9544
24.75, 101638.88, 0.23,-0.59, 9.67, 9549
24.75, 101638.88, 0.21,-0.56, 9.62, 9554
24.75, 101640.03, 0.23,-0.59, 9.66, 9559
24.75, 101640.03, 0.19,-0.56, 9.64, 9564
24.75, 101640.03, 0.23,-0.63, 9.64, 9569
24.75, 101640.03, 0.23,-0.61, 9.62, 9574
24.75, 101640.03, 0.23,-0.63, 9.62, 9579
24.75, 101640.03, 0.23,-0.59, 9.64, 9584
24.75, 101640.03, 0.17,-0.59, 9.54, 9589
24.75, 101641.69, 0.13,-0.57, 9.67, 9594
24.75, 101641.69, 0.19,-0.59, 9.69, 9599
24.75, 101641.69, 0.31,-0.59, 9.64, 9604
24.75, 101641.69, 0.27,-0.54, 9.46, 9609
24.75, 101641.69, 0.25,-0.46, 9.67, 9614
24.75, 101641.69, 0.27,-0.57, 9.69, 9621
24.75, 101642.34, 0.23,-0.57, 9.66, 9626
24.75, 101642.34, 0.21,-0.61, 9.69, 9631
24.75, 101642.34, 0.11,-0.54, 9.58, 9636
24.75, 101642.34, 0.21,-0.52, 9.66, 9641
24.75, 101642.34, 0.19,-0.59, 9.62, 9646
24.75, 101642.34, 0.13,-0.57, 9.56, 9651
24.75, 101642.34, 0.21,-0.63, 9.58, 9656
24.75, 101639.78, 0.25,-0.57, 9.69, 9661
24.75, 101639.78, 0.29,-0.52, 9.58, 9666
24.75, 101639.78, 0.23,-0.56, 9.60, 9671
24.75, 101639.78, 0.23,-0.48, 9.64, 9676
24.75, 101639.78, 0.27,-0.56, 9.62, 9681
24.75, 101639.78, 0.19,-0.54, 9.75, 9686
24.75, 101639.78, 0.21,-0.59, 9.66, 9691
24.75, 101639.78, 0.23,-0.65, 9.58, 9696
24.75, 101639.87, 0.31,-0.57, 9.60, 9701
24.75, 101639.87, 0.27,-0.63, 9.85, 9706
24.75, 101639.87, 0.27,-0.57, 9.64, 9711
24.75, 101639.87, 0.27,-0.52, 9.64, 9716
24.75, 101639.87, 0.21,-0.63, 9.62, 9721
24.75, 101639.87, 0.23,-0.57, 9.64, 9726
24.75, 101639.87, 0.21,-0.59, 9.60, 9731
24.75, 101637.95, 0.17,-0.57, 9.58, 9736
24.75, 101637.95, 0.29,-0.59, 9.54, 9741
24.75, 101637.95, 0.23,-0.52, 9.56, 9746
24.75, 101637.95, 0.25,-0.54, 9.58, 9751
24.75, 101637.95, 0.23,-0.54, 9.52, 9756
24.75, 101637.95, 0.23,-0.61, 9.66, 9761
24.75, 101637.95, 0.25,-0.56, 9.62, 9766
24.75, 101641.52, 0.21,-0.56, 9.62, 9771
24.75, 101641.52, 0.21,-0.52, 9.64, 9776
24.75, 101641.52, 0.21,-0.54, 9.62, 9781
24.75, 101641.52, 0.19,-0.50, 9.67, 9786
24.75, 101641.52, 0.17,-0.54, 9.62, 9791
24.75, 101641.52, 0.17,-0.56, 9.64, 9796
24.75, 101641.52, 0.21,-0.52, 9.62, 9801
24.75, 101641.91, 0.29,-0.59, 9.71, 9806
24.75, 101641.91, 0.21,-0.54, 9.46, 9811
24.75, 101641.91, 0.19,-0.54, 9.71, 9816
24.75, 101641.91, 0.15,-0.56, 9.71, 9821
24.75, 101641.91, 0.29,-0.61, 9.71, 9826
24.75, 101641.91, 0.33,-0.50, 9.64, 9831
24.75, 101641.91, 0.27,-0.59, 9.60, 9836
24.75, 101638.56, 0.23,-0.59, 9.48, 9841
24.75, 101638.56, 0.21,-0.54, 9.56, 9846
24.75, 101638.56, 0.29,-0.61, 9.62, 9851
24.75, 101638.56, 0.33,-0.65, 9.58, 9856
24.75, 101638.56, 0.23,-0.63, 9.71, 9861
24.75, 101638.56, 0.27,-0.61, 9.69, 9866
24.75, 101638.56, 0.21,-0.61, 9.64, 9871
24.75, 101638.71, 0.29,-0.57, 9.56, 9876
24.75, 101638.71, 0.27,-0.57, 9.52, 9881
24.75, 101638.71, 0.21,-0.54, 9.64, 9886
24.75, 101638.71, 0.25,-0.57, 9.66, 9891
24.75, 101638.71, 0.27,-0.59, 9.60, 9896
24.75, 101638.71, 0.23,-0.54, 9.64, 9901
24.75, 101638.71, 0.21,-0.56, 9.60, 9906
24.75, 101639.45, 0.15,-0.56, 9.60, 9911
24.75, 101639.45, 0.19,-0.52, 9.64, 9916
24.75, 101639.45, 0.23,-0.52, 9.67, 9921
24.75, 101639.45, 0.21,-0.54, 9.64, 9926
24.75, 101639.45, 0.21,-0.56, 9.54, 9931
24.75, 101639.45, 0.25,-0.56, 9.54, 9936
24.75, 101639.45, 0.23,-0.69, 9.25, 9941
24.75, 101639.45, 0.17,-0.59, 9.62, 9946
24.75, 101639.45, 0.21,-0.57, 9.69, 9951
24.75, 101639.45, 0.21,-0.57, 9.56, 9956
24.75, 101639.45, 0.15,-0.56, 9.56, 9961
24.75, 101639.45, 0.21,-0.56, 9.60, 9966
24.75, 101639.45, 0.29,-0.52, 9.58, 9971
24.75, 101639.45, 0.21,-0.61, 9.62, 9976
24.75, 101638.95, 0.21,-0.65, 9.62, 9981
24.75, 101638.95, 0.21,-0.59, 9.67, 9986
24.75, 101638.95, 0.23,-0.54, 9.60, 9991
24.75, 101638.95, 0.21,-0.54, 9.67, 9996
24.75, 101638.95, 0.23,-0.57, 9.58, 10001
24.75, 101638.95, 0.25,-0.56, 9.60, 10006
24.75, 101638.95, 0.23,-0.52, 9.54, 10011
24.75, 101641.19, 0.23,-0.56, 9.56, 10016
24.75, 101641.19, 0.23,-0.59, 9.56, 10021
24.75, 101641.19, 0.25,-0.56, 9.62, 10026
24.75, 101641.19, 0.23,-0.54, 9.67, 10031
24.75, 101641.19, 0.23,-0.57, 9.64, 10036
24.75, 101641.19, 0.23,-0.54, 9.60, 10041
24.75, 101641.19, 0.23,-0.57, 9.60, 10046
24.75, 101641.19, 0.29,-0.54, 9.69, 10051
24.75, 101641.25, 0.25,-0.50, 9.62, 10056
24.75, 101641.25, 0.29,-0.63, 9.66, 10061
24.75, 101641.25, 0.15,-0.54, 9.77, 10066
24.75, 101641.25, 0.17,-0.54, 9.64, 10071
24.75, 101641.25, 0.17,-0.57, 9.75, 10076
24.75, 101641.25, 0.21,-0.61, 9.67, 10081
24.75, 101641.25, 0.25,-0.57, 9.67, 10086
24.75, 101640.27, 0.17,-0.61, 9.62, 10091
24.75, 101640.27, 0.23,-0.59, 9.69, 10096
24.75, 101640.27, 0.23,-0.59, 9.60, 10101
24.75, 101640.27, 0.17,-0.59, 9.67, 10106
24.75, 101640.27, 0.27,-0.63, 9.73, 10111
24.75, 101640.27, 0.21,-0.57, 9.60, 10116
24.75, 101642.02, 0.21,-0.61, 9.58, 10124
24.75, 101642.02, 0.25,-0.59, 9.69, 10128
24.75, 101642.02, 0.23,-0.63, 9.69, 10133
24.75, 101642.02, 0.27,-0.63, 9.66, 10138
24.75, 101642.02, 0.23,-0.56, 9.58, 10143
24.75, 101642.02, 0.23,-0.56, 9.69, 10148
24.75, 101642.02, 0.31,-0.52, 9.66, 10153
24.75, 101641.73, 0.25,-0.56, 9.66, 10158
24.75, 101641.73, 0.25,-0.61, 9.77, 10163
24.75, 101641.73, 0.31,-0.54, 9.60, 10168
24.75, 101641.73, 0.19,-0.61, 9.64, 10173
24.75, 101641.73, 0.29,-0.57, 9.45, 10178
24.75, 101641.73, 0.31,-0.59, 9.50, 10183
24.75, 101641.73, 0.27,-0.56, 9.58, 10188
24.75, 101642.89, 0.27,-0.57, 9.64, 10193
24.75, 101642.02, 0.23,-0.54, 9.60, 10198
24.75, 101642.02, 0.19,-0.59, 9.71, 10203
24.75, 101642.02, 0.19,-0.59, 9.60, 10208
24.75, 101642.02, 0.23,-0.56, 9.67, 10213
24.75, 101642.02, 0.13,-0.48, 9.62, 10218
24.75, 101642.02, 0.23,-0.59, 9.69, 10223
24.75, 101642.02, 0.19,-0.54, 9.66, 10228
24.75, 101641.35, 0.17,-0.56, 9.56, 10233
24.75, 101641.35, 0.19,-0.54, 9.60, 10238
24.75, 101641.35, 0.17,-0.54, 9.64, 10243
24.75, 101641.35, 0.17,-0.57, 9.60, 10248
24.75, 101641.35, 0.29,-0.57, 9.58, 10253
24.75, 101641.35, 0.21,-0.61, 9.66, 10258
24.75, 101641.35, 0.25,-0.57, 9.64, 10263
24.75, 101641.53, 0.21,-0.54, 9.62, 10268
24.75, 101641.53, 0.27,-0.57, 9.64, 10273
24.75, 101641.53, 0.25,-0.54, 9.60, 10278
24.75, 101641.53, 0.21,-0.57, 9.62, 10283
24.75, 101641.53, 0.21,-0.57, 9.52, 10288
24.75, 101641.53, 0.23,-0.59, 9.67, 10293
24.75, 101641.53, 0.29,-0.57, 9.43, 10298
24.75, 101640.70, 0.27,-0.57, 9.54, 10303
24.75, 101640.70, 0.33,-0.57, 9.62, 10308
24.75, 101640.70, 0.27,-0.52, 9.62, 10313
24.75, 101640.70, 0.31,-0.59, 9.64, 10318
24.75, 101640.70, 0.23,-0.59, 9.67, 10323
24.75, 101640.70, 0.23,-0.56, 9.64, 10328
24.75, 101640.70, 0.21,-0.54, 9.64, 10333
24.75, 101643.51, 0.27,-0.59, 9.66, 10338
24.75, 101643.51, 0.19,-0.57, 9.62, 10343
24.75, 101643.51, 0.19,-0.59, 9.60, 10348
24.75, 101643.51, 0.19,-0.65, 9.62, 10353
24.75, 101643.51, 0.25,-0.56, 9.67, 10358
24.75, 101643.51, 0.25,-0.57, 9.64, 10363
24.75, 101643.51, 0.27,-0.61, 9.62, 10368
24.75, 101639.28, 0.25,-0.59, 9.62, 10373
24.75, 101639.28, 0.23,-0.57, 9.60, 10378
24.75, 101639.28, 0.29,-0.56, 9.64, 10383
24.75, 101639.28, 0.25,-0.59, 9.46, 10388
24.75, 101639.28, 0.15,-0.59, 9.60, 10393
24.75, 101639.28, 0.19,-0.50, 9.71, 10398
24.75, 101639.28, 0.21,-0.67, 9.69, 10403
24.75, 101639.05, 0.21,-0.61, 9.58, 10408
24.75, 101639.05, 0.27,-0.61, 9.67, 10413
24.75, 101639.05, 0.19,-0.59, 9.58, 10418
24.75, 101639.05, 0.31,-0.59, 9.60, 10423
24.75, 101639.05, 0.17,-0.57, 9.58, 10428
24.75, 101639.05, 0.23,-0.56, 9.58, 10433
24.75, 101639.05, 0.19,-0.63, 9.67, 10438
24.75, 101640.44, 0.25,-0.54, 9.69, 10443
24.75, 101640.44, 0.23,-0.54, 9.67, 10448
24.75, 101640.44, 0.19,-0.61, 9.56, 10453
24.75, 101640.44, 0.15,-0.61, 9.67, 10458
24.75, 101640.44, 0.17,-0.57, 9.64, 10463
24.75, 101640.44, 0.19,-0.52, 9.69, 10468
24.75, 101640.44, 0.23,-0.54, 9.69, 10473
24.75, 101639.78, 0.19,-0.57, 9.64, 10478
24.75, 101639.78, 0.27,-0.56, 9.62, 10483
24.75, 101639.78, 0.27,-0.57, 9.60, 10488
24.75, 101639.78, 0.19,-0.56, 9.58, 10493
24.75, 101639.78, 0.27,-0.59, 9.75, 10498
24.75, 101639.78, 0.19,-0.57, 9.50, 10503
24.75, 101639.78, 0.23,-0.57, 9.54, 10508
24.75, 101638.73, 0.17,-0.50, 9.60, 10513
24.75, 101638.73, 0.21,-0.59, 9.66, 10518
24.75, 101638.73, 0.19,-0.90, 9.52, 10523
24.75, 101638.73, 0.21,-0.61, 9.69, 10528
24.75, 101638.73, 0.23,-0.54, 9.60, 10533
24.75, 101638.73, 0.25,-0.63, 9.54, 10538
24.75, 101638.73, 0.17,-0.56, 9.52, 10543
24.75, 101643.00, 0.17,-0.61, 9.60, 10548
24.75, 101643.00, 0.29,-0.61, 9.66, 10553
24.75, 101643.00, 0.27,-0.57, 9.60, 10558
24.75, 101643.00, 0.19,-0.52, 9.64, 10563
24.75, 101643.00, 0.21,-0.59, 9.64, 10568
24.75, 101643.00, 0.25,-0.52, 9.64, 10573
24.75, 101643.00, 0.21,-0.56, 9.60, 10578
24.75, 101643.00, 0.23,-0.59, 9.66, 10583
24.75, 101640.32, 0.29,-0.63, 9.66, 10588
24.75, 101640.32, 0.25,-0.61, 9.64, 10593
24.75, 101640.32, 0.27,-0.61, 9.62, 10598
24.75, 101640.32, 0.19,-0.59, 9.64, 10603
24.75, 101640.32, 0.13,-0.57, 9.64, 10608
24.75, 101640.32, 0.27,-0.57, 9.73, 10613
24.75, 101640.32, 0.27,-0.65, 9.60, 10618
24.75, 101638.89, 0.23,-0.61, 9.58, 10626
24.75, 101638.89, 0.23,-0.59, 9.60, 10630
24.75, 101638.89, 0.25,-0.57, 9.60, 10635
24.75, 101638.89, 0.23,-0.54, 9.62, 10640
24.75, 101638.89, 0.25,-0.59, 9.67, 10645
24.75, 101638.89, 0.25,-0.59, 9.54, 10650
24.75, 101644.38, 0.25,-0.54, 9.58, 10655
24.75, 101644.38, 0.25,-0.56, 9.67, 10660
24.75, 101644.38, 0.25,-0.59, 9.62, 10665
24.75, 101644.38, 0.23,-0.61, 9.64, 10670
24.75, 101644.38, 0.17,-0.59, 9.66, 10675
24.75, 101644.38, 0.19,-0.63, 9.62, 10680
24.75, 101644.38, 0.23,-0.59, 9.67, 10685
24.75, 101641.09, 0.21,-0.59, 9.64, 10690
24.75, 101641.09, 0.21,-0.59, 9.64, 10695
24.75, 101641.09, 0.21,-0.57, 9.64, 10700
24.75, 101641.09, 0.25,-0.57, 9.69, 10705
24.75, 101641.09, 0.19,-0.56, 9.66, 10710
24.75, 101641.09, 0.19,-0.63, 9.45, 10715
24.75, 101641.09, 0.17,-0.61, 9.54, 10720
24.75, 101641.09, 0.21,-0.57, 9.75, 10725
24.75, 101640.70, 0.21,-0.67, 9.62, 10730
24.75, 101640.70, 0.21,-0.56, 9.71, 10735
24.75, 101640.70, 0.29,-0.54, 9.75, 10740
24.75, 101640.70, 0.36,-0.63, 9.67, 10745
24.75, 101640.70, 0.25,-0.52, 9.64, 10750
24.75, 101640.70, 0.21,-0.59, 9.64, 10755
24.75, 101640.70, 0.23,-0.56, 9.66, 10760
24.75, 101642.52, 0.27,-0.57, 9.60, 10765
24.75, 101642.52, 0.25,-0.63, 9.66, 10770
24.75, 101642.52, 0.21,-0.56, 9.64, 10775
24.75, 101642.52, 0.19,-0.57, 9.66, 10780
24.75, 101642.52, 0.25,-0.57, 9.67, 10785
24.75, 101642.52, 0.21,-0.59, 9.64, 10790
24.75, 101642.52, 0.15,-0.56, 9.64, 10795
24.75, 101643.57, 0.23,-0.56, 9.67, 10800
24.75, 101643.57, 0.19,-0.54, 9.60, 10805
24.75, 101643.57, 0.19,-0.56, 9.58, 10810
24.75, 101643.57, 0.19,-0.57, 9.73, 10815
24.75, 101643.57, 0.17,-0.59, 9.69, 10820
24.75, 101643.57, 0.23,-0.56, 9.58, 10825
24.75, 101643.57, 0.19,-0.67, 9.69, 10830
24.75, 101643.41, 0.23,-0.57, 9.60, 10835
24.75, 101643.41, 0.25,-0.50, 9.58, 10840
24.75, 101643.41, 0.29,-0.56, 9.37, 10845
24.75, 101643.41, 0.27,-0.63, 9.64, 10850
24.75, 101643.41, 0.19,-0.57, 9.54, 10855
24.75, 101643.41, 0.23,-0.57, 9.60, 10860
24.75, 101643.41, 0.19,-0.54, 9.60, 10865
24.75, 101641.69, 0.29,-0.57, 9.56, 10870
24.75, 101641.69, 0.23,-0.61, 9.71, 10875
24.75, 101641.69, 0.21,-0.61, 9.71, 10880
24.75, 101641.69, 0.23,-0.59, 9.58, 10885
24.75, 101641.69, 0.21,-0.61, 9.62, 10890
24.75, 101641.69, 0.25,-0.63, 9.62, 10895
24.75, 101641.69, 0.27,-0.52, 9.64, 10900
24.75, 101642.03, 0.21,-0.56, 9.60, 10905
24.75, 101642.03, 0.19,-0.48, 9.66, 10910
24.75, 101642.03, 0.17,-0.59, 9.60, 10915
24.75, 101642.03, 0.19,-0.56, 9.62, 10920
24.75, 101642.03, 0.19,-0.56, 9.64, 10925
24.75, 101642.03, 0.23,-0.59, 9.69, 10930
24.75, 101642.03, 0.25,-0.50, 9.69, 10935
24.75, 101641.02, 0.25,-0.52, 9.58, 10940
24.75, 101641.02, 0.19,-0.50, 9.48, 10945
24.75, 101641.02, 0.21,-0.54, 9.66, 10950
24.75, 101641.02, 0.21,-0.46, 9.58, 10955
24.75, 101641.02, 0.23,-0.57, 9.71, 10960
24.75, 101641.02, 0.23,-0.59, 9.77, 10965
24.75, 101641.02, 0.25,-0.67, 9.73, 10970
24.75, 101641.59, 0.25,-0.50, 9.69, 10975
24.75, 101641.59, 0.17,-0.59, 9.67, 10980
24.75, 101641.59, 0.27,-0.59, 9.71, 10985
24.75, 101641.59, 0.21,-0.63, 9.69, 10990
24.75, 101641.59, 0.21,-0.48, 9.58, 10995
24.75, 101641.59, 0.17,-0.52, 9.56, 11000
24.75, 101641.59, 0.21,-0.57, 9.58, 11005
24.75, 101641.09, 0.23,-0.59, 9.60, 11010
24.75, 101641.09, 0.19,-0.63, 9.62, 11015
24.75, 101641.09, 0.17,-0.59, 9.66, 11020
24.75, 101641.09, 0.19,-0.56, 9.62, 11025
24.75, 101641.09, 0.23,-0.59, 9.64, 11030
24.75, 101641.09, 0.19,-0.59, 9.60, 11035
24.75, 101641.09, 0.19,-0.61, 9.62, 11040
24.75, 101641.25, 0.23,-0.63, 9.62, 11045
24.75, 101641.25, 0.27,-0.61, 9.64, 11050
24.75, 101641.25, 0.27,-0.59, 9.64, 11055
24.75, 101641.25, 0.17,-0.65, 9.66, 11060
24.75, 101641.25, 0.21,-0.67, 9.64, 11065
24.75, 101641.25, 0.27,-0.57, 9.50, 11070
24.75, 101641.25, 0.27,-0.57, 9.67, 11075
24.75, 101643.06, 0.25,-0.54, 9.83, 11080
24.75, 101641.26, 0.31,-0.65, 9.75, 11085
24.75, 101641.26, 0.21,-0.59, 9.67, 11090
24.75, 101641.26, 0.19,-0.56, 9.64, 11095
24.75, 101641.26, 0.23,-0.54, 9.60, 11100
24.75, 101641.26, 0.27,-0.56, 9.54, 11105
24.75, 101641.26, 0.31,-0.57, 9.64, 11110
24.75, 101641.26, 0.25,-0.56, 9.64, 11115
24.75, 101641.19, 0.27,-0.54, 9.67, 11120
24.75, 101641.19, 0.29,-0.65, 9.60, 11127
24.75, 101641.19, 0.29,-0.61, 9.64, 11132
24.75, 101641.19, 0.25,-0.61, 9.54, 11137
24.75, 101641.19, 0.25,-0.61, 9.56, 11142
24.75, 101641.19, 0.25,-0.61, 9.64, 11147
24.75, 101640.59, 0.29,-0.56, 9.75, 11152
24.75, 101640.59, 0.13,-0.52, 9.52, 11157
24.75, 101640.59, 0.17,-0.50, 9.64, 11162
24.75, 101640.59, 0.21,-0.54, 9.58, 11167
24.75, 101640.59, 0.25,-0.52, 9.60, 11172
24.75, 101640.59, 0.21,-0.54, 9.62, 11177
24.75, 101640.59, 0.25,-0.57, 9.67, 11182
24.75, 101639.54, 0.21,-0.59, 9.60, 11187
24.75, 101639.54, 0.25,-0.56, 9.58, 11192
24.75, 101639.54, 0.15,-0.57, 9.62, 11197
24.75, 101639.54, 0.19,-0.54, 9.62, 11202
24.75, 101639.54, 0.13,-0.54, 9.64, 11207
24.75, 101639.54, 0.23,-0.56, 9.60, 11212
24.75, 101639.54, 0.15,-0.54, 9.64, 11217
24.75, 101640.81, 0.29,-0.52, 9.64, 11222
24.75, 101640.81, 0.21,-0.56, 9.62, 11227
24.75, 101640.81, 0.25,-0.56, 9.62, 11232
24.75, 101640.81, 0.31,-0.57, 9.62, 11237
24.75, 101640.81, 0.25,-0.59, 9.56, 11242
24.75, 101640.81, 0.17,-0.57, 9.46, 11247
24.75, 101640.81, 0.29,-0.65, 9.69, 11252
24.75, 101640.81, 0.23,-0.52, 9.58, 11257
24.75, 101640.20, 0.23,-0.59, 9.66, 11262
24.75, 101640.20, 0.23,-0.50, 9.67, 11267
24.75, 101640.20, 0.19,-0.56, 9.67, 11272
24.75, 101640.20, 0.15,-0.52, 9.79, 11277
24.75, 101640.20, 0.15,-0.57, 9.69, 11282
24.75, 101640.20, 0.19,-0.59, 9.67, 11287
24.75, 101640.20, 0.27,-0.57, 9.62, 11292
24.75, 101640.42, 0.17,-0.56, 9.62, 11297
24.75, 101640.42, 0.21,-0.57, 9.58, 11302
24.75, 101640.42, 0.19,-0.57, 9.66, 11307
24.75, 101640.42, 0.17,-0.63, 9.64, 11312
24.75, 101640.42, 0.19,-0.59, 9.60, 11317
24.75, 101640.42, 0.27,-0.54, 9.66, 11322
24.75, 101640.42, 0.19,-0.57, 9.66, 11327
24.75, 101642.62, 0.25,-0.54, 9.62, 11332
24.75, 101642.62, 0.23,-0.54, 9.60, 11337
24.75, 101642.62, 0.25,-0.56, 9.64, 11342
24.75, 101642.62, 0.31,-0.63, 9.62, 11347
24.75, 101642.62, 0.27,-0.54, 9.62, 11352
24.75, 101642.62, 0.34,-0.44, 9.66, 11357
24.75, 101642.62, 0.27,-0.52, 9.60, 11362
24.75, 101640.81, 0.21,-0.56, 9.71, 11367
24.75, 101640.81, 0.27,-0.52, 9.56, 11372
24.75, 101640.81, 0.21,-0.52, 9.48, 11377
24.75, 101640.81, 0.23,-0.50, 9.54, 11382
24.75, 101640.81, 0.21,-0.57, 9.67, 11387
24.75, 101640.81, 0.27,-0.59, 9.64, 11392
24.75, 101640.81, 0.33,-0.59, 9.58, 11397
24.75, 101643.34, 0.25,-0.54, 9.62, 11402
24.75, 101643.34, 0.25,-0.65, 9.73, 11407
24.75, 101643.34, 0.27,-0.61, 9.66, 11412
24.75, 101643.34, 0.27,-0.57, 9.62, 11417
24.75, 101643.34, 0.27,-0.59, 9.58, 11422
24.75, 101643.34, 0.19,-0.61, 9.54, 11427
24.75, 101643.34, 0.19,-0.61, 9.58, 11432
24.75, 101641.02, 0.25,-0.56, 9.60, 11437
24.75, 101641.02, 0.25,-0.54, 9.62, 11442
24.75, 101641.02, 0.27,-0.59, 9.60, 11447
24.75, 101641.02, 0.27,-0.57, 9.64, 11452
24.75, 101641.02, 0.21,-0.56, 9.64, 11457
24.75, 101641.02, 0.23,-0.57, 9.66, 11462
24.75, 101641.02, 0.23,-0.57, 9.56, 11467
24.75, 101640.97, 0.27,-0.54, 9.60, 11472
24.75, 101640.97, 0.21,-0.65, 9.71, 11477
24.75, 101640.97, 0.19,-0.59, 9.50, 11482
24.75, 101640.97, 0.19,-0.61, 9.66, 11487
24.75, 101640.97, 0.23,-0.61, 9.87, 11492
24.75, 101640.97, 0.19,-0.59, 9.60, 11497
24.75, 101640.97, 0.23,-0.67, 9.64, 11502
24.75, 101639.27, 0.25,-0.69, 9.66, 11507
24.75, 101639.27, 0.25,-0.65, 9.54, 11512
24.75, 101639.27, 0.23,-0.54, 9.56, 11517
24.75, 101639.27, 0.27,-0.59, 9.54, 11522
24.75, 101639.27, 0.19,-0.57, 9.52, 11527
24.75, 101639.27, 0.29,-0.57, 9.66, 11532
24.75, 101639.27, 0.23,-0.56, 9.58, 11537
24.75, 101640.97, 0.25,-0.56, 9.66, 11542
24.75, 101640.97, 0.29,-0.54, 9.64, 11547
24.75, 101640.97, 0.25,-0.59, 9.66, 11552
24.75, 101640.97, 0.27,-0.59, 9.60, 11557
24.75, 101640.97, 0.23,-0.56, 9.62, 11562
24.75, 101640.97, 0.19,-0.57, 9.66, 11567
24.75, 101640.97, 0.15,-0.56, 9.60, 11572
24.75, 101640.48, 0.21,-0.61, 9.62, 11577
24.75, 101640.48, 0.23,-0.59, 9.64, 11582
24.75, 101640.48, 0.29,-0.48, 9.66, 11587
24.75, 101640.48, 0.29,-0.50, 9.66, 11592
24.75, 101640.48, 0.21,-0.61, 9.60, 11597
24.75, 101640.48, 0.13,-0.56, 9.58, 11602
24.75, 101640.48, 0.17,-0.63, 9.73, 11607
24.75, 101640.48, 0.25,-0.61, 9.64, 11612
24.75, 101638.71, 0.25,-0.57, 9.69, 11617
24.75, 101638.71, 0.27,-0.57, 9.67, 11622
24.75, 101638.71, 0.25,-0.61, 9.64, 11630
24.75, 101638.71, 0.10,-0.56, 9.66, 11634
24.75, 101638.71, 0.25,-0.57, 9.67, 11639
24.75, 101638.71, 0.29,-0.59, 9.71, 11644
24.75, 101642.30, 0.21,-0.54, 9.66, 11649
24.75, 101642.30, 0.25,-0.59, 9.67, 11654
24.75, 101642.30, 0.25,-0.69, 9.64, 11659
24.75, 101642.30, 0.25,-0.63, 9.62, 11664
24.75, 101642.30, 0.27,-0.65, 9.71, 11669
24.75, 101642.30, 0.23,-0.56, 9.73, 11674
24.75, 101642.30, 0.21,-0.54, 9.60, 11679
24.75, 101639.20, 0.17,-0.59, 9.52, 11684
24.75, 101639.20, 0.23,-0.59, 9.77, 11689
24.75, 101639.20, 0.25,-0.65, 9.71, 11694
24.75, 101639.20, 0.31,-0.59, 9.71, 11699
24.75, 101639.20, 0.31,-0.54, 9.67, 11704
24.75, 101639.20, 0.27,-0.63, 9.77, 11709
24.75, 101639.20, 0.29,-0.54, 9.67, 11714
24.75, 101639.82, 0.21,-0.61, 9.66, 11719
24.75, 101639.82, 0.15,-0.46, 9.56, 11724
24.75, 101639.82, 0.21,-0.48, 9.58, 11729
24.75, 101639.82, 0.29,-0.48, 9.58, 11734
24.75, 101639.82, 0.19,-0.52, 9.60, 11739
24.75, 101639.82, 0.23,-0.54, 9.62, 11744
24.75, 101639.82, 0.23,-0.57, 9.60, 11749
24.75, 101639.82, 0.21,-0.52, 9.62, 11754
24.75, 101642.69, 0.29,-0.52, 9.66, 11759
24.75, 101642.69, 0.21,-0.54, 9.64, 11764
24.75, 101642.69, 0.25,-0.56, 9.62, 11769
24.75, 101642.69, 0.25,-0.54, 9.58, 11774
24.75, 101642.69, 0.21,-0.59, 9.60, 11779
24.75, 101642.69, 0.21,-0.65, 9.54, 11784
24.75, 101642.69, 0.29,-0.69, 9.52, 11789
24.75, 101640.38, 0.23,-0.54, 9.46, 11794
24.75, 101640.38, 0.25,-0.52, 9.66, 11799
24.75, 101640.38, 0.19,-0.63, 9.58, 11804
24.75, 101640.38, 0.19,-0.54, 9.56, 11809
24.75, 101640.38, 0.19,-0.61, 9.73, 11814
24.75, 101640.38, 0.23,-0.52, 9.60, 11819
24.75, 101640.38, 0.27,-0.52, 9.67, 11824
24.75, 101637.89, 0.21,-0.54, 9.69, 11829
24.75, 101637.89, 0.27,-0.56, 9.75, 11834
24.75, 101637.89, 0.21,-0.57, 9.56, 11839
24.75, 101637.89, 0.23,-0.56, 9.56, 11844
24.75, 101637.89, 0.21,-0.52, 9.58, 11849
24.75, 101637.89, 0.19,-0.54, 9.64, 11854
24.75, 101637.89, 0.17,-0.57, 9.64, 11859
24.75, 101641.62, 0.29,-0.61, 9.69, 11864
24.75, 101641.62, 0.21,-0.59, 9.67, 11869
24.75, 101641.62, 0.21,-0.56, 9.66, 11874
24.75, 101641.62, 0.21,-0.56, 9.69, 11879
24.75, 101641.62, 0.23,-0.54, 9.64, 11884
24.75, 101641.62, 0.15,-0.59, 9.60, 11889
24.75, 101641.62, 0.21,-0.59, 9.67, 11894
24.75, 101641.30, 0.27,-0.56, 9.69, 11899
24.75, 101641.30, 0.19,-0.59, 9.64, 11904
24.75, 101641.30, 0.21,-0.71, 9.48, 11909
24.75, 101641.30, 0.23,-0.63, 9.62, 11914
24.75, 101641.30, 0.25,-0.67, 9.66, 11919
24.75, 101641.30, 0.27,-0.61, 9.67, 11924
24.75, 101641.30, 0.19,-0.57, 9.69, 11929
24.75, 101637.23, 0.23,-0.56, 9.64, 11934
24.75, 101637.23, 0.17,-0.57, 9.62, 11939
24.75, 101637.23, 0.17,-0.59, 9.58, 11944
24.75, 101637.23, 0.23,-0.56, 9.56, 11949
24.75, 101637.23, 0.25,-0.56, 9.62, 11954
24.75, 101637.23, 0.21,-0.54, 9.52, 11959
24.75, 101637.23, 0.25,-0.56, 9.60, 11964
24.75, 101640.80, 0.23,-0.52, 9.62, 11969
24.75, 101640.80, 0.19,-0.63, 9.60, 11974
24.75, 101640.80, 0.33,-0.56, 9.62, 11979
24.75, 101640.80, 0.27,-0.50, 9.60, 11984
24.75, 101640.80, 0.17,-0.54, 9.64, 11989
24.75, 101640.80, 0.21,-0.54, 9.67, 11994
24.75, 101640.80, 0.25,-0.56, 9.62, 11999
24.75, 101635.81, 0.27,-0.54, 9.69, 12004
24.75, 101635.81, 0.27,-0.50, 9.62, 12009
24.75, 101635.81, 0.31,-0.56, 9.64, 12014
24.75, 101635.81, 0.23,-0.67, 9.71, 12019
24.75, 101635.81, 0.23,-0.61, 9.73, 12024
24.75, 101635.81, 0.25,-0.56, 9.81, 12029
24.75, 101635.81, 0.25,-0.57, 9.56, 12034
24.75, 101641.78, 0.21,-0.57, 9.66, 12039
24.75, 101641.78, 0.17,-0.54, 9.64, 12044
24.75, 101641.78, 0.19,-0.57, 9.64, 12049
24.75, 101641.78, 0.23,-0.54, 9.62, 12054
24.75, 101641.78, 0.23,-0.56, 9.58, 12059
24.75, 101641.78, 0.21,-0.56, 9.73, 12064
24.75, 101641.78, 0.11,-0.54, 9.66, 12069
24.75, 101642.28, 0.21,-0.54, 9.56, 12074
24.75, 101642.28, 0.25,-0.54, 9.60, 12079
24.75, 101642.28, 0.29,-0.52, 9.64, 12084
24.75, 101642.28, 0.29,-0.57, 9.64, 12089
24.75, 101642.28, 0.23,-0.54, 9.58, 12094
24.75, 101642.28, 0.25,-0.52, 9.60, 12099
24.75, 101642.28, 0.27,-0.57, 9.64, 12104
24.75, 101640.87, 0.23,-0.57, 9.64, 12109
24.75, 101640.87, 0.21,-0.56, 9.62, 12114
24.75, 101640.87, 0.23,-0.63, 9.58, 12119
24.75, 101640.87, 0.25,-0.54, 9.64, 12124
24.75, 101640.87, 0.29,-0.59, 9.66, 12132
24.75, 101640.87, 0.25,-0.56, 9.67, 12137
24.75, 101640.87, 0.19,-0.61, 9.67, 12142
24.75, 101641.62, 0.17,-0.61, 9.60, 12147
24.75, 101641.62, 0.25,-0.54, 9.54, 12152
24.75, 101641.62, 0.27,-0.52, 9.54, 12157
24.75, 101641.62, 0.31,-0.59, 9.71, 12162
24.75, 101641.62, 0.13,-0.63, 9.56, 12167
24.75, 101641.62, 0.17,-0.50, 9.58, 12172
24.75, 101641.62, 0.13,-0.56, 9.87, 12177
24.75, 101640.80, 0.15,-0.61, 9.75, 12182
24.75, 101640.80, 0.17,-0.59, 9.73, 12187
24.75, 101640.80, 0.21,-0.57, 9.69, 12192
24.75, 101640.80, 0.19,-0.56, 9.67, 12197
24.75, 101640.80, 0.15,-0.56, 9.64, 12202
24.75, 101640.80, 0.23,-0.54, 9.58, 12207
24.75, 101640.80, 0.29,-0.56, 9.58, 12212
24.75, 101638.22, 0.25,-0.56, 9.66, 12217
24.75, 101638.22, 0.21,-0.54, 9.66, 12222
24.75, 101638.22, 0.27,-0.57, 9.67, 12227
24.75, 101638.22, 0.31,-0.61, 9.66, 12232
24.75, 101638.22, 0.25,-0.59, 9.69, 12237
24.75, 101638.22, 0.25,-0.65, 9.60, 12242
24.75, 101638.22, 0.27,-0.59, 9.60, 12247
24.75, 101640.47, 0.29,-0.59, 9.58, 12252
24.75, 101640.47, 0.33,-0.65, 9.62, 12257
24.75, 101640.47, 0.29,-0.57, 9.62, 12262
24.75, 101640.47, 0.23,-0.57, 9.66, 12267
24.75, 101640.47, 0.19,-0.57, 9.64, 12272
24.75, 101640.47, 0.17,-0.59, 9.69, 12277
24.75, 101640.47, 0.23,-0.63, 9.71, 12282
24.75, 101639.47, 0.25,-0.59, 9.64, 12287
24.75, 101639.47, 0.19,-0.57, 9.64, 12292
24.75, 101639.47, 0.23,-0.59, 9.64, 12297
24.75, 101639.47, 0.21,-0.57, 9.58, 12302
24.75, 101639.47, 0.29,-0.54, 9.52, 12307
24.75, 101639.47, 0.21,-0.57, 9.41, 12312
24.75, 101639.47, 0.21,-0.63, 9.54, 12317
24.75, 101641.34, 0.21,-0.52, 9.60, 12322
24.75, 101641.34, 0.19,-0.59, 9.64, 12327
24.75, 101641.34, 0.17,-0.57, 9.62, 12332
24.75, 101641.34, 0.23,-0.57, 9.67, 12337
24.75, 101641.34, 0.27,-0.54, 9.58, 12342
24.75, 101641.34, 0.25,-0.59, 9.60, 12347
24.75, 101641.34, 0.23,-0.57, 9.60, 12352
24.75, 101641.34, 0.21,-0.59, 9.60, 12357
24.75, 101640.96, 0.21,-0.54, 9.60, 12362
24.75, 101640.96, 0.17,-0.59, 9.56, 12367
24.75, 101640.96, 0.25,-0.61, 9.62, 12372
24.75, 101640.96, 0.25,-0.54, 9.60, 12377
24.75, 101640.96, 0.25,-0.54, 9.66, 12382
24.75, 101640.96, 0.25,-0.57, 9.64, 12387
24.75, 101640.96, 0.21,-0.59, 9.52, 12392
24.75, 101642.39, 0.25,-0.52, 9.52, 12397
24.75, 101642.39, 0.38,-0.52, 9.60, 12402
24.75, 101642.39, 0.31,-0.57, 9.89, 12407
24.75, 101642.39, 0.27,-0.63, 9.39, 12412
24.75, 101642.39, 0.33,-0.67, 9.67, 12417
24.75, 101642.39, 0.29,-0.67, 9.64, 12422
24.75, 101642.39, 0.23,-0.63, 9.48, 12427
24.75, 101640.80, 0.15,-0.63, 9.25, 12432
24.75, 101640.80, 0.21,-0.63, 9.50, 12437
24.75, 101640.80, 0.29,-0.54, 9.56, 12442
24.75, 101640.80, 0.29,-0.61, 9.64, 12447
24.75, 101640.80, 0.21,-0.61, 9.60, 12452
24.75, 101640.80, 0.17,-0.59, 9.64, 12457
24.75, 101640.80, 0.27,-0.56, 9.60, 12462
24.75, 101642.50, 0.19,-0.61, 9.67, 12467
24.75, 101642.50, 0.19,-0.59, 9.60, 12472
24.75, 101642.50, 0.17,-0.56, 9.66, 12477
24.75, 101642.50, 0.17,-0.57, 9.58, 12482
24.75, 101642.50, 0.19,-0.63, 9.67, 12487
24.75, 101642.50, 0.17,-0.57, 9.67, 12492
24.75, 101642.50, 0.25,-0.61, 9.67, 12497
24.75, 101640.05, 0.25,-0.61, 9.66, 12502
24.75, 101640.05, 0.27,-0.67, 9.62, 12507
24.75, 101640.05, 0.29,-0.56, 9.60, 12512
24.75, 101640.05, 0.33,-0.52, 9.60, 12517
24.75, 101640.05, 0.27,-0.54, 9.71, 12522
24.75, 101640.05, 0.15,-0.67, 9.58, 12527
24.75, 101640.05, 0.17,-0.63, 9.66, 12532
24.75, 101642.06, 0.17,-0.50, 9.62, 12537
24.75, 101642.06, 0.27,-0.54, 9.62, 12542
24.75, 101642.06, 0.27,-0.57, 9.52, 12547
24.75, 101642.06, 0.27,-0.57, 9.60, 12552
24.75, 101642.06, 0.29,-0.67, 9.60, 12557
24.75, 101642.06, 0.23,-0.54, 9.62, 12562
24.75, 101642.06, 0.21,-0.63, 9.66, 12567
24.75, 101640.69, 0.21,-0.59, 9.66, 12572
24.75, 101640.69, 0.25,-0.61, 9.54, 12577
24.75, 101640.69, 0.17,-0.52, 9.58, 12582
24.75, 101640.69, 0.19,-0.52, 9.62, 12587
24.75, 101640.69, 0.19,-0.61, 9.60, 12592
24.75, 101640.69, 0.25,-0.63, 9.62, 12597
24.75, 101640.69, 0.17,-0.56, 9.64, 12602
24.75, 101639.47, 0.21,-0.57, 9.67, 12607
24.75, 101639.47, 0.25,-0.54, 9.64, 12612
24.75, 101639.47, 0.17,-0.56, 9.67, 12617
24.75, 101639.47, 0.19,-0.59, 9.62, 12622
24.75, 101639.47, 0.23,-0.57, 9.60, 12627
24.75, 101639.47, 0.21,-0.57, 9.64, 12635
24.75, 101639.47, 0.25,-0.59, 9.67, 12639
24.75, 101638.55, 0.25,-0.56, 9.54, 12644
24.75, 101638.55, 0.23,-0.59, 9.56, 12649
24.75, 101638.55, 0.25,-0.61, 9.60, 12654
24.75, 101638.55, 0.31,-0.59, 9.69, 12659
24.75, 101638.55, 0.29,-0.59, 9.62, 12664
24.75, 101638.55, 0.25,-0.56, 9.58, 12669
24.75, 101638.55, 0.27,-0.56, 9.64, 12674
24.75, 101641.45, 0.21,-0.59, 9.58, 12679
24.75, 101641.45, 0.25,-0.57, 9.60, 12684
24.75, 101641.45, 0.19,-0.56, 9.64, 12689
24.75, 101641.45, 0.23,-0.54, 9.67, 12694
24.75, 101641.45, 0.23,-0.57, 9.64, 12699
24.75, 101641.45, 0.15,-0.57, 9.67, 12704
24.75, 101641.45, 0.23,-0.65, 9.66, 12709
24.75, 101640.80, 0.23,-0.63, 9.62, 12714
24.75, 101640.80, 0.19,-0.63, 9.64, 12719
24.75, 101640.80, 0.23,-0.56, 9.64, 12724
24.75, 101640.80, 0.19,-0.56, 9.56, 12729
24.75, 101640.80, 0.21,-0.63, 9.62, 12734
24.75, 101640.80, 0.21,-0.59, 9.62, 12739
24.75, 101640.80, 0.21,-0.57, 9.73, 12744
24.75, 101639.47, 0.17,-0.46, 9.43, 12749
24.75, 101639.47, 0.19,-0.52, 9.66, 12754
24.75, 101639.47, 0.29,-0.59, 9.54, 12759
24.75, 101639.47, 0.21,-0.59, 9.66, 12764
24.75, 101639.47, 0.27,-0.63, 9.58, 12769
24.75, 101639.47, 0.25,-0.63, 9.54, 12774
24.75, 101639.47, 0.27,-0.59, 9.64, 12779
24.75, 101642.06, 0.31,-0.50, 9.60, 12784
24.75, 101642.06, 0.23,-0.54, 9.52, 12789
24.75, 101642.06, 0.23,-0.56, 9.64, 12794
24.75, 101642.06, 0.21,-0.54, 9.58, 12799
24.75, 101642.06, 0.17,-0.61, 9.66, 12804
24.75, 101642.06, 0.25,-0.59, 9.64, 12809
24.75, 101642.06, 0.23,-0.57, 9.67, 12814
24.75, 101641.41, 0.23,-0.56, 9.64, 12819
24.75, 101641.41, 0.21,-0.59, 9.60, 12824
24.75, 101641.41, 0.21,-0.56, 9.67, 12829
24.75, 101641.41, 0.21,-0.59, 9.62, 12834
24.75, 101641.41, 0.17,-0.59, 9.60, 12839
24.75, 101641.41, 0.15,-0.59, 9.62, 12844
24.75, 101641.41, 0.21,-0.57, 9.60, 12849
24.75, 101641.73, 0.19,-0.57, 9.64, 12854
24.75, 101641.73, 0.19,-0.65, 9.71, 12859
24.75, 101641.73, 0.19,-0.61, 9.66, 12864
24.75, 101641.73, 0.27,-0.56, 9.54, 12869
24.75, 101641.73, 0.29,-0.52, 9.73, 12874
24.75, 101641.73, 0.17,-0.59, 9.35, 12879
24.75, 101641.73, 0.21,-0.59, 9.60, 12884
24.75, 101641.73, 0.27,-0.56, 9.77, 12889
24.75, 101641.80, 0.27,-0.57, 9.67, 12894
24.75, 101641.80, 0.23,-0.54, 9.60, 12899
24.75, 101641.80, 0.31,-0.59, 9.60, 12904
24.75, 101641.80, 0.23,-0.57, 9.62, 12909
24.75, 101641.80, 0.23,-0.59, 9.62, 12914
24.75, 101641.80, 0.23,-0.57, 9.54, 12919
24.75, 101641.80, 0.21,-0.56, 9.64, 12924
24.75, 101639.59, 0.23,-0.54, 9.67, 12929
24.75, 101639.59, 0.25,-0.59, 9.66, 12934
24.75, 101639.59, 0.21,-0.56, 9.67, 12939
24.75, 101639.59, 0.19,-0.56, 9.56, 12944
24.75, 101639.59, 0.21,-0.56, 9.56, 12949
24.75, 101639.59, 0.17,-0.56, 9.62, 12954
24.75, 101639.59, 0.25,-0.57, 9.62, 12959
24.75, 101640.74, 0.17,-0.59, 9.60, 12964
24.75, 101640.74, 0.17,-0.56, 9.56, 12969
24.75, 101640.74, 0.25,-0.59, 9.48, 12974
24.75, 101640.74, 0.21,-0.59, 9.29, 12979
24.75, 101640.74, 0.21,-0.59, 9.43, 12984
24.75, 101640.74, 0.19,-0.57, 9.52, 12989
24.75, 101640.74, 0.23,-0.61, 9.52, 12994
24.75, 101641.57, 0.23,-0.56, 9.56, 12999
24.75, 101641.57, 0.19,-0.59, 9.62, 13004
24.75, 101641.57, 0.23,-0.54, 9.67, 13009
24.75, 101641.57, 0.19,-0.61, 9.60, 13014
24.75, 101641.57, 0.21,-0.56, 9.64, 13019
24.75, 101641.57, 0.21,-0.44, 9.64, 13024
24.75, 101641.57, 0.29,-0.57, 9.66, 13029
24.75, 101641.23, 0.27,-0.56, 9.62, 13034
24.75, 101641.23, 0.27,-0.56, 9.62, 13039
24.75, 101641.23, 0.29,-0.59, 9.60, 13044
24.75, 101641.23, 0.19,-0.57, 9.60, 13049
24.75, 101641.23, 0.19,-0.59, 9.60, 13054
24.75, 101641.23, 0.23,-0.54, 9.64, 13059
24.75, 101641.23, 0.19,-0.50, 9.60, 13064
24.75, 101638.48, 0.15,-0.52, 9.66, 13069
24.75, 101638.48, 0.23,-0.61, 9.50, 13074
24.75, 101638.48, 0.29,-0.59, 9.64, 13079
24.75, 101638.48, 0.19,-0.61, 9.50, 13084
24.75, 101638.48, 0.17,-0.56, 9.52, 13089
24.75, 101638.48, 0.21,-0.48, 9.48, 13094
24.75, 101638.48, 0.29,-0.56, 9.43, 13099
24.75, 101639.70, 0.27,-0.59, 9.60, 13104
24.75, 101639.70, 0.27,-0.63, 9.56, 13109
24.75, 101639.70, 0.19,-0.61, 9.60, 13114
24.75, 101639.70, 0.19,-0.59, 9.71, 13119
24.75, 101639.70, 0.25,-0.61, 9.64, 13124
24.75, 101639.70, 0.19,-0.54, 9.66, 13129
24.75, 101639.14, 0.21,-0.57, 9.62, 13141
24.75, 101639.14, 0.23,-0.63, 9.64, 13145
24.75, 101639.14, 0.23,-0.59, 9.50, 13150
24.75, 101639.14, 0.15,-0.57, 9.56, 13155
24.75, 101639.14, 0.23,-0.56, 9.62, 13160
24.75, 101639.14, 0.17,-0.59, 9.67, 13165
24.75, 101639.14, 0.21,-0.52, 9.54, 13170
24.75, 101639.27, 0.23,-0.57, 9.69, 13175
24.75, 101639.27, 0.27,-0.56, 9.64, 13180
24.75, 101639.27, 0.27,-0.63, 9.64, 13185
24.75, 101639.27, 0.25,-0.59, 9.62, 13190
24.75, 101639.27, 0.27,-0.57, 9.64, 13195
24.75, 101639.27, 0.33,-0.54, 9.60, 13200
24.75, 101639.27, 0.27,-0.56, 9.62, 13205
24.75, 101639.59, 0.23,-0.54, 9.62, 13210
24.75, 101639.59, 0.23,-0.54, 9.67, 13215
24.75, 101639.59, 0.21,-0.56, 9.67, 13220
24.75, 101639.59, 0.29,-0.54, 9.69, 13225
24.75, 101639.59, 0.31,-0.54, 9.62, 13230
24.75, 101639.59, 0.23,-0.56, 9.69, 13235
24.75, 101639.59, 0.23,-0.54, 9.69, 13240
24.75, 101640.09, 0.21,-0.59, 9.58, 13245
24.75, 101640.09, 0.21,-0.54, 9.66, 13250
24.75, 101640.09, 0.19,-0.90, 9.66, 13255
24.75, 101640.09, 0.23,-0.59, 9.46, 13260
24.75, 101640.09, 0.25,-0.61, 9.58, 13265
24.75, 101640.09, 0.23,-0.57, 9.64, 13270
24.75, 101640.09, 0.25,-0.52, 9.69, 13275
24.75, 101641.23, 0.23,-0.59, 9.60, 13280
24.75, 101641.23, 0.31,-0.57, 9.69, 13285
24.75, 101641.23, 0.13,-0.54, 9.56, 13290
24.75, 101641.23, 0.29,-0.57, 9.58, 13295
24.75, 101641.23, 0.31,-0.57, 9.56, 13300
24.75, 101641.23, 0.27,-0.57, 9.64, 13305
24.75, 101641.23, 0.23,-0.57, 9.60, 13310
24.75, 101641.23, 0.21,-0.56, 9.66, 13315
24.75, 101643.34, 0.29,-0.54, 9.67, 13320
24.75, 101643.34, 0.27,-0.65, 9.69, 13325
24.75, 101643.34, 0.27,-0.63, 9.66, 13330
24.75, 101643.34, 0.27,-0.57, 9.62, 13335
24.75, 101643.34, 0.21,-0.63, 9.50, 13340
24.75, 101643.34, 0.21,-0.65, 9.64, 13345
24.75, 101643.34, 0.13,-0.65, 9.52, 13350
24.75, 101642.23, 0.21,-0.54, 9.58, 13355
24.75, 101642.23, 0.25,-0.54, 9.75, 13360
24.75, 101642.23, 0.19,-0.54, 9.67, 13365
24.75, 101642.23, 0.27,-0.63, 9.50, 13370
24.75, 101642.23, 0.27,-0.63, 9.54, 13375
24.75, 101642.23, 0.29,-0.61, 9.60, 13380
24.75, 101642.23, 0.25,-0.56, 9.67, 13385
24.75, 101640.64, 0.21,-0.52, 9.56, 13390
24.75, 101640.64, 0.21,-0.54, 9.67, 13395
24.75, 101640.64, 0.13,-0.48, 9.66, 13400
24.75, 101640.64, 0.29,-0.56, 9.69, 13405
24.75, 101640.64, 0.33,-0.57, 9.60, 13410
24.75, 101640.64, 0.27,-0.59, 9.62, 13415
24.75, 101640.64, 0.19,-0.63, 9.54, 13420
24.75, 101639.42, 0.25,-0.59, 9.56, 13425
24.75, 101639.42, 0.23,-0.61, 9.60, 13430
24.75, 101639.42, 0.19,-0.57, 9.62, 13435
24.75, 101639.42, 0.15,-0.57, 9.62, 13440
24.75, 101639.42, 0.29,-0.59, 9.64, 13445
24.75, 101639.42, 0.25,-0.57, 9.58, 13450
24.75, 101639.42, 0.23,-0.59, 9.64, 13455
24.75, 101641.13, 0.29,-0.61, 9.62, 13460
24.75, 101641.13, 0.29,-0.52, 9.73, 13465
24.75, 101641.13, 0.23,-0.59, 9.58, 13470
24.75, 101641.13, 0.21,-0.54, 9.48, 13475
24.75, 101641.13, 0.25,-0.57, 9.62, 13480
24.75, 101641.13, 0.29,-0.56, 9.54, 13485
24.75, 101641.13, 0.27,-0.56, 9.52, 13490
24.75, 101641.47, 0.17,-0.63, 9.58, 13495
24.75, 101641.47, 0.13,-0.61, 9.66, 13500
24.75, 101641.47, 0.23,-0.67, 9.75, 13505
24.75, 101641.47, 0.21,-0.57, 9.64, 13510
24.75, 101641.47, 0.23,-0.54, 9.62, 13515
24.75, 101641.47, 0.25,-0.63, 9.66, 13520
24.75, 101641.47, 0.21,-0.59, 9.62, 13525
24.75, 101637.55, 0.25,-0.59, 9.66, 13530
24.75, 101637.55, 0.23,-0.61, 9.60, 13535
24.75, 101637.55, 0.23,-0.61, 9.64, 13540
24.75, 101637.55, 0.23,-0.61, 9.64, 13545
24.75, 101637.55, 0.27,-0.54, 9.64, 13550
24.75, 101637.55, 0.25,-0.57, 9.64, 13555
24.75, 101637.55, 0.21,-0.54, 9.62, 13560
24.75, 101642.68, 0.23,-0.61, 9.60, 13565
24.75, 101642.68, 0.21,-0.67, 9.75, 13570
24.75, 101642.68, 0.17,-0.54, 9.62, 13575
24.75, 101642.68, 0.21,-0.61, 9.60, 13580
24.75, 101642.68, 0.23,-0.67, 9.67, 13585
24.75, 101642.68, 0.25,-0.57, 9.69, 13590
24.75, 101642.68, 0.21,-0.57, 9.62, 13595
24.75, 101640.47, 0.23,-0.61, 9.67, 13600
24.75, 101640.47, 0.29,-0.52, 9.67, 13605
24.75, 101640.47, 0.36,-0.56, 9.71, 13610
24.75, 101640.47, 0.29,-0.59, 9.58, 13615
24.75, 101640.47, 0.27,-0.54, 9.58, 13620
24.75, 101640.47, 0.21,-0.56, 9.60, 13625
24.75, 101640.47, 0.29,-0.56, 9.64, 13630
24.75, 101640.31, 0.29,-0.56, 9.60, 13635
24.75, 101640.31, 0.13,-0.59, 9.60, 13643
24.75, 101640.31, 0.25,-0.59, 9.62, 13647
24.75, 101640.31, 0.23,-0.59, 9.71, 13652
24.75, 101640.31, 0.25,-0.59, 9.71, 13657
24.75, 101640.31, 0.21,-0.61, 9.71, 13662
24.75, 101640.31, 0.13,-0.63, 9.62, 13667
24.75, 101640.20, 0.21,-0.69, 9.73, 13672
24.75, 101640.20, 0.29,-0.67, 9.75, 13677
24.75, 101640.20, 0.27,-0.36, 9.58, 13682
24.75, 101640.20, 0.23,-0.61, 9.66, 13687
24.75, 101640.20, 0.21,-0.65, 9.64, 13692
24.75, 101640.20, 0.23,-0.56, 9.66, 13697
24.75, 101640.20, 0.17,-0.63, 9.60, 13702
24.75, 101641.47, 0.23,-0.59, 9.64, 13707
24.75, 101641.47, 0.13,-0.57, 9.66, 13712
24.75, 101641.47, 0.19,-0.59, 9.64, 13717
24.75, 101641.47, 0.21,-0.59, 9.67, 13722
24.75, 101641.47, 0.25,-0.61, 9.64, 13727
24.75, 101641.47, 0.23,-0.63, 9.66, 13732
24.75, 101641.47, 0.23,-0.63, 9.56, 13737
24.75, 101642.12, 0.21,-0.61, 9.58, 13742
24.75, 101642.12, 0.25,-0.63, 9.66, 13747
24.75, 101642.12, 0.25,-0.57, 9.62, 13752
24.75, 101642.12, 0.23,-0.54, 9.56, 13757
24.75, 101642.12, 0.21,-0.56, 9.62, 13762
24.75, 101642.12, 0.17,-0.54, 9.54, 13767
24.75, 101642.12, 0.15,-0.61, 9.66, 13772
24.75, 101643.34, 0.21,-0.63, 9.71, 13777
24.75, 101643.34, 0.27,-0.54, 9.67, 13782
24.75, 101643.34, 0.27,-0.57, 9.64, 13787
24.75, 101643.34, 0.25,-0.57, 9.62, 13792
24.75, 101643.34, 0.27,-0.63, 9.60, 13797
24.75, 101643.34, 0.29,-0.57, 9.64, 13802
24.75, 101643.34, 0.23,-0.57, 9.54, 13807
24.75, 101643.33, 0.19,-0.52, 9.67, 13812
24.75, 101643.33, 0.19,-0.52, 9.64, 13817
24.75, 101643.33, 0.17,-0.61, 9.71, 13822
24.75, 101643.33, 0.13,-0.61, 9.60, 13827
24.75, 101643.33, 0.21,-0.61, 9.60, 13832
24.75, 101643.33, 0.21,-0.57, 9.58, 13837
24.75, 101643.33, 0.25,-0.59, 9.71, 13842
24.75, 101643.33, 0.25,-0.59, 9.62, 13847
24.75, 101640.36, 0.21,-0.56, 9.58, 13852
24.75, 101640.36, 0.15,-0.61, 9.58, 13857
24.75, 101640.36, 0.17,-0.54, 9.60, 13862
24.75, 101640.36, 0.25,-0.56, 9.67, 13867
24.75, 101640.36, 0.25,-0.56, 9.62, 13872
24.75, 101640.36, 0.27,-0.56, 9.62, 13877
24.75, 101640.36, 0.23,-0.54, 9.64, 13882
24.75, 101639.27, 0.19,-0.61, 9.62, 13887
24.75, 101639.27, 0.21,-0.54, 9.67, 13892
24.75, 101639.27, 0.23,-0.54, 9.60, 13897
24.75, 101639.27, 0.23,-0.59, 9.58, 13902
24.75, 101639.27, 0.19,-0.56, 9.64, 13907
24.75, 101639.27, 0.29,-0.57, 9.81, 13912
24.75, 101639.27, 0.34,-0.57, 9.54, 13917
24.75, 101641.47, 0.29,-0.57, 9.56, 13922
24.75, 101641.47, 0.27,-0.59, 9.56, 13927
24.75, 101641.47, 0.23,-0.50, 9.60, 13932
24.75, 101641.47, 0.23,-0.50, 9.67, 13937
24.75, 101641.47, 0.19,-0.56, 9.69, 13942
24.75, 101641.47, 0.25,-0.56, 9.66, 13947
24.75, 101641.47, 0.25,-0.54, 9.56, 13952
24.75, 101642.29, 0.21,-0.50, 9.56, 13957
24.75, 101642.29, 0.21,-0.59, 9.62, 13962
24.75, 101642.29, 0.23,-0.57, 9.60, 13967
24.75, 101642.29, 0.23,-0.63, 9.60, 13972
24.75, 101642.29, 0.21,-0.61, 9.66, 13977
24.75, 101642.29, 0.19,-0.56, 9.66, 13982
24.75, 101642.29, 0.21,-0.50, 9.64, 13987
24.75, 101639.55, 0.23,-0.57, 9.56, 13992
24.75, 101639.55, 0.15,-0.57, 9.58, 13997
24.75, 101639.55, 0.17,-0.57, 9.77, 14002
24.75, 101639.55, 0.23,-0.48, 9.71, 14007
24.75, 101639.55, 0.25,-0.46, 9.69, 14012
24.75, 101639.55, 0.23,-0.61, 9.71, 14017
24.75, 101639.55, 0.19,-0.65, 9.45, 14022
24.75, 101639.98, 0.17,-0.59, 9.37, 14027
24.75, 101639.98, 0.25,-0.59, 9.50, 14032
24.75, 101639.98, 0.31,-0.50, 9.58, 14037
24.75, 101639.98, 0.19,-0.52, 9.58, 14042
24.75, 101639.98, 0.23,-0.52, 9.58, 14047
24.75, 101639.98, 0.17,-0.46, 9.64, 14052
24.75, 101639.98, 0.19,-0.54, 9.66, 14057
24.75, 101638.98, 0.21,-0.57, 9.54, 14062
24.75, 101638.98, 0.23,-0.48, 9.64, 14067
24.75, 101638.98, 0.25,-0.56, 9.67, 14072
24.75, 101638.98, 0.23,-0.57, 9.60, 14077
24.75, 101638.98, 0.19,-0.61, 9.62, 14082
24.75, 101638.98, 0.25,-0.63, 9.60, 14087
24.75, 101638.98, 0.21,-0.56, 9.64, 14092
24.75, 101640.04, 0.21,-0.61, 9.64, 14097
24.75, 101640.04, 0.27,-0.61, 9.60, 14102
24.75, 101640.04, 0.25,-0.52, 9.62, 14107
24.75, 101640.04, 0.19,-0.56, 9.58, 14112
24.75, 101640.04, 0.25,-0.48, 9.67, 14117
24.75, 101640.04, 0.21,-0.54, 9.64, 14122
24.75, 101640.04, 0.19,-0.63, 9.71, 14127
24.75, 101640.36, 0.15,-0.59, 9.50, 14132
24.75, 101640.36, 0.23,-0.59, 9.54, 14137
24.75, 101640.36, 0.25,-0.48, 9.71, 14145
24.75, 101640.36, 0.17,-0.50, 9.66, 14150
24.75, 101640.36, 0.25,-0.48, 9.60, 14154
24.75, 101640.36, 0.27,-0.63, 9.66, 14159
24.75, 101640.36, 0.19,-0.61, 9.67, 14164
24.75, 101640.95, 0.25,-0.56, 9.67, 14169
24.75, 101640.95, 0.21,-0.61, 9.64, 14174
24.75, 101640.95, 0.23,-0.59, 9.60, 14179
24.75, 101640.95, 0.21,-0.59, 9.67, 14184
24.75, 101640.95, 0.23,-0.54, 9.73, 14189
24.75, 101640.95, 0.23,-0.57, 9.67, 14194
24.75, 101640.95, 0.19,-0.69, 9.50, 14199
24.75, 101638.72, 0.21,-0.61, 9.77, 14204
24.75, 101638.72, 0.27,-0.56, 9.66, 14209
24.75, 101638.72, 0.25,-0.57, 9.69, 14214
24.75, 101638.72, 0.25,-0.57, 9.62, 14219
24.75, 101638.72, 0.21,-0.46, 9.75, 14224
24.75, 101638.72, 0.23,-0.48, 9.73, 14229
24.75, 101638.72, 0.23,-0.63, 9.66, 14234
24.75, 101643.48, 0.25,-0.54, 9.58, 14239
24.75, 101643.48, 0.21,-0.57, 9.54, 14244
24.75, 101643.48, 0.23,-0.59, 9.54, 14249
24.75, 101643.48, 0.21,-0.56, 9.64, 14254
24.75, 101643.48, 0.19,-0.57, 9.60, 14259
24.75, 101643.48, 0.21,-0.59, 9.58, 14264
24.75, 101643.48, 0.19,-0.59, 9.64, 14269
24.75, 101641.36, 0.21,-0.61, 9.64, 14274
24.75, 101641.36, 0.23,-0.59, 9.62, 14279
24.75, 101641.36, 0.19,-0.56, 9.62, 14284
24.75, 101641.36, 0.25,-0.57, 9.62, 14289
24.75, 101641.36, 0.29,-0.57, 9.62, 14294
24.75, 101641.36, 0.23,-0.59, 9.54, 14299
24.75, 101641.36, 0.29,-0.50, 9.64, 14304
24.75, 101640.53, 0.25,-0.65, 9.67, 14309
24.75, 101640.53, 0.15,-0.71, 9.71, 14314
24.75, 101640.53, 0.19,-0.57, 9.64, 14319
24.75, 101640.53, 0.15,-0.52, 9.46, 14324
24.75, 101640.53, 0.21,-0.54, 9.71, 14329
24.75, 101640.53, 0.13,-0.56, 9.66, 14334
24.75, 101640.53, 0.19,-0.56, 9.66, 14339
24.75, 101640.53, 0.19,-0.56, 9.67, 14344
24.75, 101640.04, 0.23,-0.56, 9.60, 14349
24.75, 101640.04, 0.33,-0.54, 9.66, 14354
24.75, 101640.04, 0.27,-0.56, 9.62, 14359
24.75, 101640.04, 0.25,-0.56, 9.60, 14364
24.75, 101640.04, 0.25,-0.57, 9.64, 14369
24.75, 101640.04, 0.21,-0.59, 9.64, 14374
24.75, 101640.04, 0.21,-0.52, 9.64, 14379
24.75, 101637.40, 0.19,-0.59, 9.67, 14384
24.75, 101637.40, 0.25,-0.57, 9.58, 14389
24.75, 101637.40, 0.25,-0.54, 9.58, 14394
24.75, 101637.40, 0.19,-0.59, 9.60, 14399
24.75, 101637.40, 0.27,-0.59, 9.66, 14404
24.75, 101637.40, 0.25,-0.56, 9.66, 14409
24.75, 101637.40, 0.27,-0.52, 9.62, 14414
24.75, 101640.20, 0.19,-0.63, 9.56, 14419
24.75, 101640.20, 0.13,-0.61, 9.56, 14424
24.75, 101640.20, 0.13,-0.67, 9.58, 14429
24.75, 101640.20, 0.23,-0.63, 9.73, 14434
24.75, 101640.20, 0.27,-0.65, 9.81, 14439
24.75, 101640.20, 0.27,-0.59, 9.71, 14444
24.75, 101640.20, 0.25,-0.54, 9.66, 14449
24.75, 101638.05, 0.27,-0.56, 9.62, 14454
24.75, 101638.05, 0.15,-0.56, 9.56, 14459
24.75, 101638.05, 0.19,-0.52, 9.62, 14464
24.75, 101638.05, 0.21,-0.54, 9.56, 14469
24.75, 101638.05, 0.13,-0.61, 9.60, 14474
24.75, 101638.05, 0.31,-0.59, 9.60, 14479
24.75, 101638.05, 0.27,-0.56, 9.60, 14484
24.75, 101640.20, 0.23,-0.63, 9.62, 14489
24.75, 101640.20, 0.23,-0.57, 9.66, 14494
24.75, 101640.20, 0.19,-0.59, 9.69, 14499
24.75, 101640.20, 0.21,-0.59, 9.62, 14504
24.75, 101640.20, 0.21,-0.57, 9.58, 14509
24.75, 101640.20, 0.29,-0.56, 9.62, 14514
24.75, 101640.20, 0.29,-0.59, 9.62, 14519
24.75, 101641.12, 0.27,-0.54, 9.43, 14524
24.75, 101641.12, 0.23,-0.59, 9.46, 14529
24.75, 101641.12, 0.21,-0.54, 9.58, 14534
24.75, 101641.12, 0.27,-0.54, 9.79, 14539
24.75, 101641.12, 0.27,-0.57, 9.81, 14544
24.75, 101641.12, 0.27,-0.52, 9.43, 14549
24.75, 101641.12, 0.25,-0.57, 9.50, 14554
24.75, 101643.98, 0.25,-0.57, 9.69, 14559
24.75, 101643.98, 0.27,-0.65, 9.69, 14564
24.75, 101643.98, 0.23,-0.61, 9.52, 14569
24.75, 101643.98, 0.23,-0.56, 9.56, 14574
24.75, 101643.98, 0.19,-0.50, 9.69, 14579
24.75, 101643.98, 0.23,-0.52, 9.66, 14584
24.75, 101643.98, 0.17,-0.52, 9.67, 14589
24.75, 101640.79, 0.19,-0.57, 9.71, 14594
24.75, 101640.79, 0.15,-0.57, 9.64, 14599
24.75, 101640.79, 0.17,-0.50, 9.60, 14604
24.75, 101640.79, 0.15,-0.61, 9.56, 14609
24.75, 101640.79, 0.19,-0.63, 9.62, 14614
24.75, 101640.79, 0.17,-0.57, 9.64, 14619
24.75, 101640.79, 0.21,-0.61, 9.64, 14624
24.75, 101639.86, 0.21,-0.61, 9.71, 14629
24.75, 101639.86, 0.29,-0.56, 9.73, 14634
24.75, 101639.86, 0.25,-0.56, 9.58, 14639
24.75, 101639.86, 0.19,-0.57, 9.62, 14647
24.75, 101639.86, 0.21,-0.57, 9.62, 14653
24.75, 101639.86, 0.27,-0.54, 9.66, 14657
24.75, 101639.86, 0.25,-0.44, 9.66, 14662
24.75, 101638.22, 0.25,-0.52, 9.66, 14667
24.75, 101638.22, 0.31,-0.54, 9.69, 14672
24.75, 101638.22, 0.23,-0.52, 9.71, 14677
24.75, 101638.22, 0.31,-0.57, 9.64, 14682
24.75, 101638.22, 0.29,-0.54, 9.60, 14687
24.75, 101638.22, 0.31,-0.57, 9.69, 14692
24.75, 101638.22, 0.21,-0.56, 9.67, 14697
24.75, 101638.86, 0.27,-0.67, 9.64, 14702
24.75, 101638.86, 0.25,-0.57, 9.58, 14707
24.75, 101638.86, 0.29,-0.61, 9.69, 14712
24.75, 101638.86, 0.21,-0.59, 9.58, 14717
24.75, 101638.86, 0.29,-0.57, 9.69, 14722
24.75, 101638.86, 0.21,-0.57, 9.64, 14727
24.75, 101638.86, 0.23,-0.63, 9.67, 14732
24.75, 101636.73, 0.21,-0.59, 9.66, 14737
24.75, 101636.73, 0.19,-0.57, 9.64, 14742
24.75, 101636.73, 0.19,-0.61, 9.62, 14747
24.75, 101636.73, 0.29,-0.56, 9.60, 14752
24.75, 101636.73, 0.21,-0.54, 9.60, 14757
24.75, 101636.73, 0.23,-0.56, 9.67, 14762
24.75, 101636.73, 0.21,-0.61, 9.69, 14767
24.75, 101639.97, 0.17,-0.54, 9.46, 14772
24.75, 101639.97, 0.13,-0.63, 9.58, 14777
24.75, 101639.97, 0.17,-0.65, 9.52, 14782
24.75, 101639.97, 0.19,-0.34, 9.71, 14787
24.75, 101639.97, 0.23,-0.56, 9.60, 14792
24.75, 101639.97, 0.25,-0.56, 9.71, 14797
24.75, 101639.97, 0.31,-0.56, 9.69, 14802
24.75, 101638.66, 0.27,-0.57, 9.64, 14807
24.75, 101638.66, 0.31,-0.61, 9.54, 14812
24.75, 101638.66, 0.27,-0.57, 9.62, 14817
24.75, 101638.66, 0.17,-0.54, 9.69, 14822
24.75, 101638.66, 0.15,-0.56, 9.60, 14827
24.75, 101638.66, 0.15,-0.61, 9.62, 14832
24.75, 101638.66, 0.15,-0.59, 9.62, 14837
24.75, 101638.55, 0.17,-0.61, 9.64, 14842
24.75, 101638.55, 0.23,-0.61, 9.58, 14847
24.75, 101638.55, 0.19,-0.57, 9.64, 14852
24.75, 101638.55, 0.21,-0.54, 9.64, 14857
24.75, 101638.55, 0.19,-0.54, 9.71, 14862
24.75, 101638.55, 0.17,-0.59, 9.50, 14867
24.75, 101638.55, 0.23,-0.56, 9.56, 14872
24.75, 101638.31, 0.17,-0.52, 9.54, 14877
24.75, 101638.31, 0.17,-0.54, 9.31, 14882
24.75, 101638.31, 0.21,-0.73, 9.58, 14887
24.75, 101638.31, 0.19,-0.36, 9.60, 14892
24.75, 101638.31, 0.23,-0.50, 9.50, 14897
24.75, 101638.31, 0.21,-0.50, 9.50, 14902
24.75, 101638.31, 0.29,-0.57, 9.56, 14907
24.75, 101639.97, 0.23,-0.57, 9.64, 14912
24.75, 101640.84, 0.23,-0.56, 9.60, 14917
24.75, 101640.84, 0.17,-0.59, 9.60, 14922
24.75, 101640.84, 0.17,-0.67, 9.58, 14927
24.75, 101640.84, 0.19,-0.59, 9.60, 14932
24.75, 101640.84, 0.19,-0.59, 9.58, 14937
24.75, 101640.84, 0.21,-0.56, 9.62, 14942
24.75, 101640.84, 0.25,-0.50, 9.64, 14947
24.75, 101641.12, 0.23,-0.50, 9.73, 14952
24.75, 101641.12, 0.17,-0.54, 9.60, 14957
24.75, 101641.12, 0.29,-0.54, 9.64, 14962
24.75, 101641.12, 0.25,-0.56, 9.64, 14967
24.75, 101641.12, 0.31,-0.57, 9.66, 14972
24.75, 101641.12, 0.21,-0.57, 9.46, 14977
24.75, 101641.12, 0.19,-0.57, 9.62, 14982
24.75, 101641.18, 0.25,-0.56, 9.58, 14987
24.75, 101641.18, 0.19,-0.57, 9.67, 14992
24.75, 101641.18, 0.19,-0.59, 9.75, 14997
24.75, 101641.18, 0.21,-0.56, 9.60, 15002
24.79, 101640.69, 0.29,-0.57, 9.66, 15081
24.79, 101640.69, 0.29,-0.65, 9.54, 15085
24.79, 101639.69, 0.21,-0.57, 9.58, 15090
24.79, 101639.69, 0.17,-0.52, 9.60, 15095
24.79, 101639.69, 0.17,-0.57, 9.56, 15100
24.79, 101639.69, 0.29,-0.57, 9.56, 15105
24.79, 101639.69, 0.33,-0.57, 9.64, 15110
24.79, 101639.69, 0.31,-0.54, 9.60, 15115
24.79, 101639.69, 0.23,-0.56, 9.60, 15120
24.79, 101636.55, 0.19,-0.54, 9.60, 15125
24.79, 101636.55, 0.27,-0.56, 9.71, 15130
24.79, 101636.55, 0.27,-0.56, 9.60, 15135
24.79, 101636.55, 0.31,-0.56, 9.71, 15140
24.79, 101636.55, 0.25,-0.56, 9.69, 15145
24.79, 101636.55, 0.27,-0.54, 9.56, 15150
24.79, 101636.55, 0.29,-0.56, 9.64, 15155
24.79, 101636.55, 0.27,-0.59, 9.60, 15160
24.79, 101638.66, 0.29,-0.54, 9.60, 15165
24.79, 101638.66, 0.27,-0.57, 9.62, 15170
24.79, 101638.66, 0.23,-0.61, 9.66, 15175
24.79, 101638.66, 0.21,-0.56, 9.67, 15180
24.79, 101638.66, 0.25,-0.54, 9.60, 15185
24.79, 101638.66, 0.29,-0.52, 9.60, 15190
24.79, 101638.66, 0.27,-0.50, 9.64, 15195
24.79, 101637.22, 0.23,-0.61, 9.62, 15200
24.79, 101637.22, 0.21,-0.54, 9.66, 15205
24.79, 101637.22, 0.25,-0.57, 9.66, 15210
24.79, 101637.22, 0.21,-0.57, 9.60, 15215
24.79, 101637.22, 0.21,-0.52, 9.62, 15223
24.79, 101637.22, 0.31,-0.59, 9.62, 15227
24.79, 101638.20, 0.23,-0.56, 9.67, 15232
24.79, 101638.20, 0.19,-0.56, 9.66, 15237
24.79, 101638.20, 0.21,-0.56, 9.48, 15242
24.79, 101638.20, 0.23,-0.56, 9.67, 15247
24.79, 101638.20, 0.25,-0.63, 9.66, 15252
24.79, 101638.20, 0.23,-0.56, 9.67, 15257
24.79, 101638.20, 0.23,-0.61, 9.62, 15262
24.79, 101637.88, 0.25,-0.67, 9.62, 15267
24.79, 101637.88, 0.21,-0.57, 9.69, 15272
24.79, 101637.88, 0.23,-0.63, 9.73, 15277
24.79, 101637.88, 0.23,-0.56, 9.62, 15282
24.79, 101637.88, 0.25,-0.50, 9.58, 15287
24.79, 101637.88, 0.21,-0.59, 9.64, 15292
24.79, 101637.88, 0.23,-0.54, 9.64, 15297
24.79, 101637.88, 0.23,-0.57, 9.60, 15302
24.79, 101639.42, 0.25,-0.63, 9.58, 15307
24.79, 101639.42, 0.15,-0.61, 9.60, 15312
24.79, 101639.42, 0.21,-0.59, 9.62, 15317
24.79, 101639.42, 0.21,-0.59, 9.64, 15322
24.79, 101639.42, 0.17,-0.57, 9.67, 15327
24.79, 101639.42, 0.19,-0.63, 9.71, 15332
24.79, 101639.42, 0.23,-0.59, 9.89, 15337
24.79, 101637.38, 0.19,-0.67, 9.71, 15342
24.79, 101637.38, 0.21,-0.61, 9.66, 15347
24.79, 101637.38, 0.31,-0.59, 9.58, 15352
24.79, 101637.38, 0.25,-0.63, 9.60, 15357
24.79, 101637.38, 0.29,-0.52, 9.60, 15362
24.79, 101637.38, 0.19,-0.48, 9.69, 15367
24.79, 101637.38, 0.27,-0.50, 9.64, 15372
24.79, 101640.52, 0.27,-0.54, 9.58, 15377
24.79, 101640.52, 0.21,-0.61, 9.60, 15382
24.79, 101640.52, 0.21,-0.52, 9.56, 15387
24.79, 101640.52, 0.25,-0.50, 9.66, 15392
24.79, 101640.52, 0.21,-0.54, 9.67, 15397
24.79, 101640.52, 0.21,-0.52, 9.66, 15402
24.79, 101640.52, 0.25,-0.57, 9.62, 15407
24.79, 101638.97, 0.25,-0.59, 9.62, 15412
24.79, 101638.97, 0.21,-0.57, 9.64, 15417
24.79, 101638.97, 0.17,-0.54, 9.64, 15422
24.79, 101638.97, 0.23,-0.57, 9.62, 15427
24.79, 101638.97, 0.31,-0.57, 9.66, 15432
24.79, 101638.97, 0.21,-0.61, 9.60, 15437
24.79, 101638.97, 0.25,-0.50, 9.64, 15442
24.79, 101634.76, 0.15,-0.61, 9.52, 15447
24.79, 101634.76, 0.19,-0.56, 9.69, 15452
24.79, 101634.76, 0.19,-0.52, 9.64, 15457
24.79, 101634.76, 0.27,-0.54, 9.64, 15462
24.79, 101634.76, 0.17,-0.57, 9.58, 15467
24.79, 101634.76, 0.25,-0.57, 9.69, 15472
24.79, 101634.76, 0.23,-0.57, 9.62, 15477
24.79, 101637.81, 0.25,-0.56, 9.60, 15482
24.79, 101637.81, 0.25,-0.54, 9.64, 15487
24.79, 101637.81, 0.23,-0.52, 9.69, 15492
24.79, 101637.81, 0.17,-0.54, 9.62, 15497
24.79, 101637.81, 0.27,-0.54, 9.62, 15502
24.79, 101637.81, 0.25,-0.56, 9.58, 15507
24.79, 101637.81, 0.23,-0.63, 9.64, 15512
24.79, 101637.55, 0.27,-0.61, 9.66, 15517
24.79, 101637.55, 0.27,-0.52, 9.58, 15522
24.79, 101637.55, 0.25,-0.56, 9.64, 15527
24.79, 101637.55, 0.23,-0.57, 9.67, 15532
24.79, 101637.55, 0.15,-0.59, 9.64, 15537
24.79, 101637.55, 0.17,-0.56, 9.62, 15542
24.79, 101637.55, 0.29,-0.50, 9.60, 15547
24.79, 101638.92, 0.23,-0.71, 9.60, 15552
24.79, 101638.92, 0.19,-0.63, 9.60, 15557
24.79, 101638.92, 0.21,-0.67, 9.58, 15562
24.79, 101638.92, 0.19,-0.59, 9.62, 15567
24.79, 101638.92, 0.19,-0.56, 9.66, 15572
24.79, 101638.92, 0.21,-0.57, 9.60, 15577
24.79, 101638.92, 0.27,-0.65, 9.66, 15582
24.79, 101638.05, 0.23,-0.57, 9.67, 15587
24.79, 101638.05, 0.21,-0.63, 9.71, 15592
24.79, 101638.05, 0.21,-0.59, 9.69, 15597
24.79, 101638.05, 0.27,-0.59, 9.50, 15602
24.79, 101638.05, 0.29,-0.63, 9.56, 15607
24.79, 101638.05, 0.23,-0.56, 9.66, 15612
24.79, 101638.05, 0.23,-0.52, 9.66, 15617
24.79, 101641.12, 0.25,-0.56, 9.62, 15622
24.79, 101641.12, 0.25,-0.57, 9.66, 15627
24.79, 101641.12, 0.25,-0.57, 9.58, 15632
24.79, 101641.12, 0.31,-0.54, 9.62, 15637
24.79, 101641.12, 0.27,-0.57, 9.60, 15642
24.79, 101641.12, 0.29,-0.57, 9.64, 15647
24.79, 101641.12, 0.23,-0.57, 9.64, 15652
24.79, 101641.12, 0.31,-0.61, 9.62, 15657
24.79, 101637.22, 0.27,-0.61, 9.64, 15662
24.79, 101637.22, 0.21,-0.59, 9.66, 15667
24.79, 101637.22, 0.23,-0.61, 9.62, 15672
24.79, 101637.22, 0.29,-0.61, 9.62, 15677
24.79, 101637.22, 0.25,-0.57, 9.71, 15682
24.79, 101637.22, 0.23,-0.56, 9.66, 15687
24.79, 101637.22, 0.19,-0.57, 9.46, 15692
24.79, 101638.16, 0.15,-0.57, 9.50, 15697
24.79, 101638.16, 0.15,-0.57, 9.60, 15702
24.79, 101638.16, 0.25,-0.59, 9.64, 15707
24.79, 101638.16, 0.17,-0.65, 9.64, 15712
24.79, 101638.16, 0.25,-0.65, 9.75, 15717
24.79, 101638.16, 0.27,-0.54, 9.60, 15725
24.79, 101640.47, 0.27,-0.52, 9.54, 15729
24.79, 101640.47, 0.13,-0.59, 9.56, 15734
24.79, 101640.47, 0.25,-0.57, 9.56, 15739
24.79, 101640.47, 0.25,-0.57, 9.64, 15744
24.79, 101640.47, 0.29,-0.59, 9.66, 15749
24.79, 101640.47, 0.23,-0.52, 9.56, 15754
24.79, 101640.47, 0.27,-0.54, 9.64, 15759
24.79, 101638.92, 0.27,-0.52, 9.66, 15764
24.79, 101638.92, 0.23,-0.63, 9.64, 15769
24.79, 101638.92, 0.13,-0.57, 9.50, 15774
24.79, 101638.92, 0.19,-0.61, 9.66, 15779
24.79, 101638.92, 0.25,-0.56, 9.64, 15784
24.79, 101638.92, 0.27,-0.50, 9.58, 15789
24.79, 101638.92, 0.33,-0.48, 9.58, 15794
24.79, 101638.92, 0.15,-0.63, 9.56, 15799
24.79, 101639.42, 0.17,-0.57, 9.50, 15804
24.79, 101639.42, 0.21,-0.54, 9.66, 15809
24.79, 101639.42, 0.27,-0.57, 9.64, 15814
24.79, 101639.42, 0.23,-0.57, 9.62, 15819
24.79, 101639.42, 0.21,-0.54, 9.64, 15824
24.79, 101639.42, 0.17,-0.54, 9.54, 15829
24.79, 101639.42, 0.23,-0.50, 9.64, 15834
24.79, 101638.77, 0.23,-0.52, 9.62, 15839
24.79, 101638.77, 0.25,-0.56, 9.66, 15844
24.79, 101638.77, 0.23,-0.52, 9.62, 15849
24.79, 101638.77, 0.23,-0.52, 9.56, 15854
24.79, 101638.77, 0.21,-0.56, 9.60, 15859
24.79, 101638.77, 0.21,-0.61, 9.62, 15864
24.79, 101638.77, 0.23,-0.57, 9.62, 15869
24.79, 101637.71, 0.21,-0.56, 9.58, 15874
24.79, 101637.71, 0.21,-0.61, 9.66, 15879
24.79, 101637.71, 0.21,-0.50, 9.64, 15884
24.79, 101637.71, 0.25,-0.63, 9.62, 15889
24.79, 101637.71, 0.29,-0.59, 9.64, 15894
24.79, 101637.71, 0.17,-0.56, 9.60, 15899
24.79, 101637.71, 0.19,-0.57, 9.52, 15904
24.79, 101639.48, 0.27,-0.59, 9.54, 15909
24.79, 101639.48, 0.29,-0.63, 9.60, 15914
24.79, 101639.48, 0.21,-0.59, 9.62, 15919
24.79, 101639.48, 0.19,-0.57, 9.66, 15924
24.79, 101639.48, 0.29,-0.48, 9.66, 15929
24.79, 101639.48, 0.29,-0.56, 9.66, 15934
24.79, 101639.48, 0.23,-0.57, 9.60, 15939
24.79, 101641.30, 0.21,-0.61, 9.60, 15944
24.79, 101641.30, 0.33,-0.54, 9.64, 15949
24.79, 101641.30, 0.27,-0.50, 9.64, 15954
24.79, 101641.30, 0.27,-0.56, 9.66, 15959
24.79, 101641.30, 0.23,-0.57, 9.64, 15964
24.79, 101641.30, 0.21,-0.56, 9.64, 15969
24.79, 101641.30, 0.25,-0.54, 9.62, 15974
24.79, 101639.81, 0.21,-0.56, 9.66, 15979
24.79, 101639.81, 0.25,-0.61, 9.64, 15984
24.79, 101639.81, 0.19,-0.52, 9.73, 15989
24.79, 101639.81, 0.06,-0.52, 9.56, 15994
24.79, 101639.81, 0.19,-0.63, 9.62, 15999
24.79, 101639.81, 0.21,-0.63, 9.60, 16004
24.79, 101639.81, 0.21,-0.65, 9.43, 16009
24.79, 101639.53, 0.23,-0.65, 9.62, 16014
24.79, 101639.53, 0.19,-0.65, 9.62, 16019
24.79, 101639.53, 0.13,-0.57, 9.62, 16024
24.79, 101639.53, 0.17,-0.54, 9.60, 16029
24.79, 101639.53, 0.27,-0.59, 9.66, 16034
24.79, 101639.53, 0.23,-0.65, 9.60, 16039
24.79, 101639.53, 0.25,-0.56, 9.66, 16044
24.79, 101637.22, 0.23,-0.52, 9.69, 16049
24.79, 101637.22, 0.25,-0.54, 9.52, 16054
24.79, 101637.22, 0.21,-0.56, 9.56, 16059
24.79, 101637.22, 0.21,-0.56, 9.64, 16064
24.79, 101637.22, 0.21,-0.57, 9.58, 16069
24.79, 101637.22, 0.23,-0.57, 9.67, 16074
24.79, 101637.22, 0.19,-0.56, 9.71, 16079
24.79, 101638.38, 0.29,-0.57, 9.66, 16084
24.79, 101638.38, 0.19,-0.56, 9.66, 16089
24.79, 101638.38, 0.23,-0.54, 9.66, 16094
24.79, 101638.38, 0.21,-0.52, 9.60, 16099
24.79, 101638.38, 0.29,-0.56, 9.64, 16104
24.79, 101638.38, 0.25,-0.56, 9.54, 16109
24.79, 101638.38, 0.25,-0.56, 9.71, 16114
24.79, 101637.05, 0.29,-0.54, 9.71, 16119
24.79, 101637.05, 0.29,-0.56, 9.67, 16124
24.79, 101637.05, 0.31,-0.56, 9.67, 16129
24.79, 101637.05, 0.25,-0.57, 9.56, 16134
24.79, 101637.05, 0.15,-0.56, 9.58, 16139
24.79, 101637.05, 0.23,-0.57, 9.62, 16144
24.79, 101637.05, 0.19,-0.54, 9.60, 16149
24.79, 101638.58, 0.15,-0.61, 9.66, 16154
24.79, 101638.58, 0.19,-0.59, 9.62, 16159
24.79, 101638.58, 0.27,-0.59, 9.67, 16164
24.79, 101638.58, 0.23,-0.61, 9.66, 16169
24.79, 101638.58, 0.29,-0.57, 9.66, 16174
24.79, 101638.58, 0.21,-0.57, 9.71, 16179
24.79, 101638.58, 0.29,-0.52, 9.64, 16184
24.79, 101638.58, 0.27,-0.57, 9.64, 16189
24.79, 101639.31, 0.23,-0.54, 9.66, 16194
24.79, 101639.31, 0.23,-0.61, 9.67, 16199
24.79, 101639.31, 0.23,-0.61, 9.62, 16204
24.79, 101639.31, 0.23,-0.59, 9.69, 16209
24.79, 101639.31, 0.21,-0.59, 9.66, 16214
24.79, 101639.31, 0.21,-0.57, 9.64, 16219
24.79, 101637.66, 0.21,-0.59, 9.67, 16226
24.79, 101637.66, 0.25,-0.57, 9.67, 16231
24.79, 101637.66, 0.31,-0.57, 9.60, 16236
24.79, 101637.66, 0.27,-0.61, 9.64, 16241
24.79, 101637.66, 0.19,-0.54, 9.56, 16246
24.79, 101637.66, 0.23,-0.57, 9.62, 16251
24.79, 101637.66, 0.19,-0.57, 9.69, 16256
24.79, 101636.45, 0.31,-0.57, 9.69, 16261
24.79, 101636.45, 0.21,-0.57, 9.64, 16266
24.79, 101636.45, 0.25,-0.57, 9.60, 16271
24.79, 101636.45, 0.25,-0.54, 9.60, 16276
24.79, 101636.45, 0.21,-0.59, 9.62, 16281
24.79, 101636.45, 0.23,-0.57, 9.64, 16286
24.79, 101636.45, 0.27,-0.54, 9.62, 16291
24.79, 101635.45, 0.23,-0.50, 9.66, 16296
24.79, 101635.45, 0.27,-0.61, 9.67, 16301
24.79, 101635.45, 0.27,-0.65, 9.69, 16306
24.79, 101635.45, 0.19,-0.61, 9.67, 16311
24.79, 101635.45, 0.25,-0.59, 9.64, 16316
24.79, 101635.45, 0.15,-0.54, 9.64, 16321
24.79, 101635.45, 0.13,-0.54, 9.52, 16326
24.79, 101635.45, 0.21,-0.56, 9.56, 16331
24.79, 101640.95, 0.21,-0.56, 9.71, 16336
24.79, 101640.95, 0.29,-0.57, 9.60, 16341
24.79, 101640.95, 0.23,-0.56, 9.66, 16346
24.79, 101640.95, 0.25,-0.50, 9.62, 16351
24.79, 101640.95, 0.19,-0.63, 9.58, 16356
24.79, 101640.95, 0.23,-0.56, 9.62, 16361
24.79, 101640.95, 0.17,-0.57, 9.60, 16366
24.79, 101636.51, 0.21,-0.61, 9.64, 16371
24.79, 101636.51, 0.25,-0.65, 9.54, 16376
24.79, 101636.51, 0.25,-0.63, 9.58, 16381
24.79, 101636.51, 0.17,-0.56, 9.64, 16386
24.79, 101636.51, 0.21,-0.56, 9.58, 16391
24.79, 101636.51, 0.21,-0.63, 9.56, 16396
24.79, 101636.51, 0.23,-0.54, 9.62, 16401
24.79, 101636.84, 0.23,-0.56, 9.64, 16406
24.79, 101636.84, 0.23,-0.57, 9.67, 16411
24.79, 101636.84, 0.25,-0.57, 9.69, 16416
24.79, 101636.84, 0.21,-0.63, 9.66, 16421
24.79, 101636.84, 0.19,-0.59, 9.60, 16426
24.79, 101636.84, 0.17,-0.65, 9.56, 16431
24.79, 101636.84, 0.19,-0.65, 9.60, 16436
24.79, 101639.41, 0.21,-0.50, 9.50, 16441
24.79, 101639.41, 0.29,-0.56, 9.54, 16446
24.79, 101639.41, 0.27,-0.52, 9.41, 16451
24.79, 101639.41, 0.17,-0.54, 9.54, 16456
24.79, 101639.41, 0.25,-0.59, 9.60, 16461
24.79, 101639.41, 0.27,-0.61, 9.62, 16466
24.79, 101639.41, 0.21,-0.56, 9.58, 16471
24.79, 101637.44, 0.25,-0.50, 9.66, 16476
24.79, 101637.44, 0.27,-0.57, 9.60, 16481
24.79, 101637.44, 0.17,-0.50, 9.62, 16486
24.79, 101637.44, 0.25,-0.59, 9.60, 16491
24.79, 101637.44, 0.21,-0.57, 9.66, 16496
24.79, 101637.44, 0.19,-0.63, 9.64, 16501
24.79, 101637.44, 0.27,-0.56, 9.64, 16506
24.79, 101639.48, 0.27,-0.57, 9.64, 16511
24.79, 101639.48, 0.21,-0.56, 9.60, 16516
24.79, 101639.48, 0.17,-0.54, 9.56, 16521
24.79, 101639.48, 0.23,-0.54, 9.60, 16526
24.79, 101639.48, 0.23,-0.56, 9.66, 16531
24.79, 101639.48, 0.27,-0.63, 9.64, 16536
24.79, 101639.48, 0.21,-0.59, 9.67, 16541
24.79, 101640.06, 0.17,-0.67, 9.58, 16546
24.79, 101640.06, 0.21,-0.67, 9.60, 16551
24.79, 101640.06, 0.19,-0.54, 9.69, 16556
24.79, 101640.06, 0.21,-0.65, 9.71, 16561
24.79, 101640.06, 0.25,-0.61, 9.58, 16566
24.79, 101640.06, 0.21,-0.61, 9.56, 16571
24.79, 101640.06, 0.27,-0.54, 9.62, 16576
24.79, 101637.98, 0.23,-0.61, 9.66, 16581
24.79, 101637.98, 0.25,-0.52, 9.67, 16586
24.79, 101637.98, 0.29,-0.48, 9.58, 16591
24.79, 101637.98, 0.27,-0.56, 9.62, 16596
24.79, 101637.98, 0.23,-0.65, 9.66, 16601
24.79, 101637.98, 0.21,-0.56, 9.66, 16606
24.79, 101637.98, 0.23,-0.56, 9.62, 16611
24.79, 101639.48, 0.23,-0.63, 9.64, 16616
24.79, 101639.48, 0.19,-0.54, 9.62, 16621
24.79, 101639.48, 0.17,-0.63, 9.62, 16626
24.79, 101639.48, 0.21,-0.65, 9.64, 16631
24.79, 101639.48, 0.25,-0.57, 9.62, 16636
24.79, 101639.48, 0.29,-0.54, 9.62, 16641
24.79, 101639.48, 0.27,-0.54, 9.58, 16646
24.79, 101636.17, 0.25,-0.52, 9.58, 16651
24.79, 101636.17, 0.23,-0.61, 9.39, 16656
24.79, 101636.17, 0.23,-0.61, 9.56, 16661
24.79, 101636.17, 0.25,-0.56, 9.64, 16666
24.79, 101636.17, 0.17,-0.57, 9.81, 16671
24.79, 101636.17, 0.19,-0.59, 9.56, 16676
24.79, 101636.17, 0.23,-0.61, 9.60, 16681
24.79, 101636.17, 0.23,-0.61, 9.43, 16686
24.79, 101640.06, 0.33,-0.59, 9.50, 16691
24.79, 101640.06, 0.27,-0.56, 9.62, 16696
24.79, 101640.06, 0.25,-0.52, 9.58, 16701
24.79, 101640.06, 0.27,-0.59, 9.64, 16706
24.79, 101640.06, 0.25,-0.56, 9.66, 16711
24.79, 101640.06, 0.25,-0.57, 9.73, 16716
24.79, 101640.06, 0.19,-0.52, 9.66, 16721
24.79, 101637.42, 0.21,-0.54, 9.60, 16729
24.79, 101637.42, 0.17,-0.59, 9.67, 16733
24.79, 101637.42, 0.17,-0.61, 9.67, 16738
24.79, 101637.42, 0.25,-0.59, 9.67, 16743
24.79, 101637.42, 0.29,-0.54, 9.60, 16748
24.79, 101637.42, 0.27,-0.57, 9.48, 16753
24.79, 101638.91, 0.21,-0.52, 9.23, 16758
24.79, 101638.91, 0.25,-0.56, 9.58, 16763
24.79, 101638.91, 0.29,-0.57, 9.41, 16768
24.79, 101638.91, 0.33,-0.59, 9.54, 16773
24.79, 101638.91, 0.31,-0.65, 9.56, 16778
24.79, 101638.91, 0.25,-0.57, 9.62, 16783
24.79, 101638.91, 0.17,-0.59, 9.77, 16788
24.79, 101639.23, 0.27,-0.54, 9.73, 16793
24.79, 101639.23, 0.21,-0.56, 9.64, 16798
24.79, 101639.23, 0.23,-0.54, 9.66, 16803
24.79, 101639.23, 0.29,-0.52, 9.60, 16808
24.79, 101639.23, 0.23,-0.54, 9.54, 16813
24.79, 101639.23, 0.21,-0.61, 9.54, 16818
24.79, 101639.23, 0.19,-0.57, 9.64, 16823
24.79, 101639.23, 0.25,-0.57, 9.64, 16828
24.79, 101640.12, 0.25,-0.52, 9.66, 16833
24.79, 101640.12, 0.25,-0.56, 9.67, 16838
24.79, 101640.12, 0.21,-0.56, 9.69, 16843
24.79, 101640.12, 0.19,-0.59, 9.67, 16848
24.79, 101640.12, 0.27,-0.54, 9.64, 16853
24.79, 101640.12, 0.25,-0.54, 9.73, 16858
24.79, 101640.12, 0.25,-0.57, 9.54, 16863
24.79, 101637.33, 0.19,-0.71, 9.56, 16868
24.79, 101637.33, 0.21,-0.57, 9.62, 16873
24.79, 101637.33, 0.23,-0.54, 9.64, 16878
24.79, 101637.33, 0.25,-0.56, 9.62, 16883
24.79, 101637.33, 0.23,-0.63, 9.58, 16888
24.79, 101637.33, 0.25,-0.63, 9.64, 16893
24.79, 101637.33, 0.21,-0.54, 9.64, 16898
24.79, 101636.51, 0.23,-0.61, 9.75, 16903
24.79, 101636.51, 0.25,-0.56, 9.60, 16908
24.79, 101636.51, 0.21,-0.52, 9.62, 16913
24.79, 101636.51, 0.23,-0.54, 9.64, 16918
24.79, 101636.51, 0.21,-0.56, 9.62, 16923
24.79, 101636.51, 0.19,-0.57, 9.62, 16928
24.79, 101636.51, 0.27,-0.57, 9.56, 16933
24.79, 101637.98, 0.21,-0.57, 9.52, 16938
24.79, 101637.98, 0.23,-0.59, 9.56, 16943
24.79, 101637.98, 0.31,-0.59, 9.62, 16948
24.79, 101637.98, 0.29,-0.56, 9.64, 16953
24.79, 101637.98, 0.25,-0.56, 9.64, 16958
24.79, 101637.98, 0.23,-0.52, 9.67, 16963
24.79, 101637.98, 0.25,-0.52, 9.60, 16968
24.79, 101636.59, 0.17,-0.61, 9.58, 16973
24.79, 101636.59, 0.15,-0.59, 9.52, 16978
24.79, 101636.59, 0.21,-0.57, 9.48, 16983
24.79, 101636.59, 0.21,-0.54, 9.79, 16988
24.79, 101636.59, 0.29,-0.52, 9.83, 16993
24.79, 101636.59, 0.15,-0.63, 9.77, 16998
24.79, 101636.59, 0.21,-0.63, 9.71, 17003
24.79, 101637.59, 0.19,-0.57, 9.64, 17008
24.79, 101637.59, 0.17,-0.56, 9.62, 17013
24.79, 101637.59, 0.33,-0.56, 9.66, 17018
24.79, 101637.59, 0.17,-0.56, 9.71, 17023
24.79, 101637.59, 0.19,-0.57, 9.67, 17028
24.79, 101637.59, 0.27,-0.59, 9.67, 17033
24.79, 101637.59, 0.25,-0.63, 9.67, 17038
24.79, 101638.64, 0.25,-0.63, 9.64, 17043
24.79, 101638.64, 0.23,-0.56, 9.62, 17048
24.79, 101638.64, 0.21,-0.57, 9.64, 17053
24.79, 101638.64, 0.23,-0.57, 9.66, 17058
24.79, 101638.64, 0.25,-0.63, 9.62, 17063
24.79, 101638.64, 0.21,-0.63, 9.62, 17068
24.79, 101638.64, 0.25,-0.59, 9.58, 17073
24.79, 101636.67, 0.25,-0.57, 9.58, 17078
24.79, 101636.67, 0.31,-0.56, 9.62, 17083
24.79, 101636.67, 0.27,-0.59, 9.75, 17088
24.79, 101636.67, 0.23,-0.61, 9.56, 17093
24.79, 101636.67, 0.21,-0.59, 9.67, 17098
24.79, 101636.67, 0.21,-0.59, 9.64, 17103
24.79, 101636.67, 0.19,-0.56, 9.71, 17108
24.79, 101639.23, 0.29,-0.59, 9.60, 17113
24.79, 101639.23, 0.25,-0.61, 9.60, 17118
24.79, 101639.23, 0.23,-0.56, 9.67, 17123
24.79, 101639.23, 0.23,-0.63, 9.60, 17128
24.79, 101639.23, 0.23,-0.63, 9.64, 17133
24.79, 101639.23, 0.23,-0.59, 9.60, 17138
24.79, 101639.23, 0.17,-0.59, 9.58, 17143
24.79, 101639.62, 0.19,-0.57, 9.60, 17148
24.79, 101639.62, 0.21,-0.57, 9.67, 17153
24.79, 101639.62, 0.21,-0.54, 9.64, 17158
24.79, 101639.62, 0.25,-0.50, 9.66, 17163
24.79, 101639.62, 0.25,-0.56, 9.71, 17168
24.79, 101639.62, 0.17,-0.54, 9.66, 17173
24.79, 101639.62, 0.23,-0.61, 9.60, 17178
24.79, 101641.61, 0.23,-0.56, 9.64, 17183
24.79, 101641.61, 0.21,-0.54, 9.75, 17188
24.79, 101641.61, 0.23,-0.61, 9.56, 17193
24.79, 101641.61, 0.23,-0.59, 9.75, 17198
24.79, 101641.61, 0.23,-0.54, 9.71, 17203
24.79, 101641.61, 0.27,-0.59, 9.64, 17208
24.79, 101641.61, 0.17,-0.61, 9.73, 17213
24.79, 101641.61, 0.21,-0.56, 9.73, 17218
24.79, 101640.12, 0.27,-0.54, 9.77, 17223
24.79, 101640.12, 0.27,-0.61, 9.67, 17235
24.79, 101640.12, 0.29,-0.59, 9.62, 17244
24.79, 101640.12, 0.31,-0.57, 9.56, 17248
24.79, 101640.12, 0.23,-0.50, 9.62, 17253
24.79, 101639.19, 0.21,-0.56, 9.64, 17258
24.79, 101639.19, 0.29,-0.57, 9.62, 17263
24.79, 101639.19, 0.25,-0.56, 9.67, 17268
24.79, 101639.19, 0.25,-0.57, 9.64, 17273
24.79, 101639.19, 0.23,-0.56, 9.62, 17278
24.79, 101639.19, 0.27,-0.56, 9.66, 17283
24.79, 101639.19, 0.19,-0.56, 9.64, 17288
24.79, 101637.31, 0.19,-0.63, 9.60, 17293
24.79, 101637.31, 0.21,-0.57, 9.52, 17298
24.79, 101637.31, 0.19,-0.56, 9.50, 17303
24.79, 101637.31, 0.21,-0.57, 9.35, 17308
24.79, 101637.31, 0.21,-0.69, 9.48, 17313
24.79, 101637.31, 0.23,-0.61, 9.69, 17318
24.79, 101637.31, 0.19,-0.59, 9.60, 17323
24.79, 101638.48, 0.25,-0.65, 9.66, 17328
24.79, 101638.48, 0.15,-0.56, 9.71, 17333
24.79, 101638.48, 0.15,-0.50, 9.67, 17338
24.79, 101638.48, 0.21,-0.56, 9.62, 17343
24.79, 101638.48, 0.29,-0.56, 9.56, 17348
24.79, 101638.48, 0.23,-0.54, 9.64, 17353
24.79, 101638.48, 0.27,-0.50, 9.66, 17358
24.79, 101637.76, 0.25,-0.56, 9.77, 17363
24.79, 101637.76, 0.25,-0.59, 9.62, 17368
24.79, 101637.76, 0.25,-0.59, 9.54, 17373
24.79, 101637.76, 0.23,-0.59, 9.60, 17378
24.79, 101637.76, 0.27,-0.52, 9.64, 17383
24.79, 101637.76, 0.23,-0.54, 9.62, 17388
24.79, 101637.76, 0.19,-0.61, 9.67, 17393
24.79, 101638.64, 0.23,-0.57, 9.60, 17398
24.79, 101638.64, 0.25,-0.61, 9.64, 17403
24.79, 101638.64, 0.29,-0.56, 9.62, 17408
24.79, 101638.64, 0.19,-0.54, 9.64, 17413
24.79, 101638.64, 0.23,-0.57, 9.60, 17418
24.79, 101638.64, 0.19,-0.65, 9.56, 17423
24.79, 101638.64, 0.25,-0.65, 9.60, 17428
24.79, 101639.80, 0.27,-0.61, 9.58, 17433
24.79, 101639.80, 0.25,-0.56, 9.56, 17438
24.79, 101639.80, 0.31,-0.56, 9.71, 17443
24.79, 101639.80, 0.29,-0.59, 9.48, 17448
24.79, 101639.80, 0.23,-0.56, 9.50, 17453
24.79, 101639.80, 0.25,-0.57, 9.56, 17458
24.79, 101639.80, 0.25,-0.52, 9.64, 17463
24.79, 101638.64, 0.25,-0.57, 9.62, 17468
24.79, 101638.64, 0.23,-0.56, 9.58, 17473
24.79, 101638.64, 0.27,-0.57, 9.60, 17478
24.79, 101638.64, 0.23,-0.56, 9.67, 17483
24.79, 101638.64, 0.25,-0.57, 9.66, 17488
24.79, 101638.64, 0.25,-0.59, 9.66, 17493
24.79, 101638.64, 0.23,-0.54, 9.71, 17498
24.79, 101637.09, 0.21,-0.52, 9.60, 17503
24.79, 101637.09, 0.21,-0.52, 9.67, 17508
24.79, 101637.09, 0.25,-0.56, 9.66, 17513
24.79, 101637.09, 0.23,-0.57, 9.66, 17518
24.79, 101637.09, 0.31,-0.54, 9.60, 17523
24.79, 101637.09, 0.11,-0.52, 9.58, 17528
24.79, 101637.09, 0.21,-0.54, 9.75, 17533
24.79, 101638.53, 0.21,-0.54, 9.62, 17538
24.79, 101638.53, 0.23,-0.52, 9.48, 17543
24.79, 101638.53, 0.19,-0.57, 9.41, 17548
24.79, 101638.53, 0.23,-0.56, 9.60, 17553
24.79, 101638.53, 0.21,-0.59, 9.62, 17558
24.79, 101638.53, 0.27,-0.63, 9.60, 17563
24.79, 101638.53, 0.25,-0.65, 9.64, 17568
24.79, 101638.53, 0.23,-0.65, 9.67, 17573
24.79, 101639.08, 0.19,-0.59, 9.69, 17578
24.79, 101639.08, 0.17,-0.56, 9.69, 17583
24.79, 101639.08, 0.21,-0.46, 9.60, 17588
24.79, 101639.08, 0.23,-0.57, 9.71, 17593
24.79, 101639.08, 0.21,-0.59, 9.66, 17598
24.79, 101639.08, 0.13,-0.56, 9.64, 17603
24.79, 101639.08, 0.21,-0.56, 9.69, 17608
24.79, 101637.31, 0.31,-0.56, 9.64, 17613
24.79, 101637.31, 0.29,-0.56, 9.64, 17618
24.79, 101637.31, 0.21,-0.56, 9.67, 17623
24.79, 101637.31, 0.25,-0.56, 9.60, 17628
24.79, 101637.31, 0.25,-0.59, 9.62, 17633
24.79, 101637.31, 0.23,-0.54, 9.62, 17638
24.79, 101637.31, 0.17,-0.54, 9.66, 17643
24.79, 101638.14, 0.17,-0.50, 9.60, 17648
24.79, 101638.14, 0.21,-0.54, 9.66, 17653
24.79, 101638.14, 0.27,-0.54, 9.50, 17658
24.79, 101638.14, 0.21,-0.56, 9.66, 17663
24.79, 101638.14, 0.25,-0.52, 9.69, 17668
24.79, 101638.14, 0.23,-0.61, 9.54, 17673
24.79, 101638.14, 0.17,-0.65, 9.71, 17678
24.79, 101639.91, 0.21,-0.59, 9.69, 17683
24.79, 101639.91, 0.21,-0.56, 9.60, 17688
24.79, 101639.91, 0.17,-0.59, 9.60, 17693
24.79, 101639.91, 0.19,-0.63, 9.67, 17698
24.79, 101639.91, 0.15,-0.52, 9.66, 17703
24.79, 101639.91, 0.23,-0.59, 9.60, 17708
24.79, 101639.91, 0.25,-0.56, 9.54, 17713
24.79, 101641.48, 0.25,-0.61, 9.60, 17718
24.79, 101641.48, 0.19,-0.57, 9.62, 17723
24.79, 101641.48, 0.23,-0.56, 9.54, 17728
24.79, 101641.48, 0.23,-0.54, 9.64, 17733
24.79, 101641.48, 0.17,-0.57, 9.62, 17741
24.79, 101641.48, 0.27,-0.63, 9.83, 17745
24.79, 101641.48, 0.23,-0.63, 9.66, 17750
24.79, 101636.27, 0.31,-0.46, 9.69, 17755
24.79, 101636.27, 0.33,-0.56, 9.62, 17760
24.79, 101636.27, 0.27,-0.54, 9.64, 17765
24.79, 101636.27, 0.25,-0.52, 9.66, 17770
24.79, 101636.27, 0.21,-0.48, 9.58, 17775
24.79, 101636.27, 0.19,-0.63, 9.64, 17780
24.79, 101636.27, 0.21,-0.57, 9.62, 17785
24.79, 101636.16, 0.25,-0.52, 9.54, 17790
24.79, 101636.16, 0.29,-0.56, 9.64, 17795
24.79, 101636.16, 0.25,-0.65, 9.64, 17800
24.79, 101636.16, 0.21,-0.57, 9.60, 17805
24.79, 101636.16, 0.27,-0.59, 9.60, 17810
24.79, 101636.16, 0.27,-0.50, 9.67, 17815
24.79, 101636.16, 0.19,-0.54, 9.60, 17820
24.79, 101637.31, 0.23,-0.50, 9.64, 17825
24.79, 101637.31, 0.27,-0.54, 9.64, 17830
24.79, 101637.31, 0.23,-0.56, 9.66, 17835
24.79, 101637.31, 0.27,-0.57, 9.58, 17840
24.79, 101637.31, 0.27,-0.54, 9.62, 17845
24.79, 101637.31, 0.27,-0.57, 9.52, 17850
24.79, 101637.31, 0.23,-0.69, 9.58, 17855
24.79, 101638.53, 0.23,-0.71, 9.73, 17860
24.79, 101638.53, 0.21,-0.57, 9.54, 17865
24.79, 101638.53, 0.17,-0.48, 9.54, 17870
24.79, 101638.53, 0.21,-0.56, 9.54, 17875
24.79, 101638.53, 0.25,-0.61, 9.64, 17880
24.79, 101638.53, 0.27,-0.56, 9.67, 17885
24.79, 101638.53, 0.21,-0.57, 9.66, 17890
24.79, 101637.16, 0.23,-0.59, 9.66, 17895
24.79, 101637.16, 0.25,-0.59, 9.54, 17900
24.79, 101637.16, 0.19,-0.54, 9.69, 17905
24.79, 101637.16, 0.23,-0.59, 9.69, 17910
24.79, 101637.16, 0.15,-0.56, 9.60, 17915
24.79, 101637.16, 0.23,-0.57, 9.58, 17920
24.79, 101637.16, 0.27,-0.52, 9.62, 17925
24.79, 101637.81, 0.19,-0.59, 9.62, 17930
24.79, 101637.81, 0.23,-0.59, 9.62, 17935
24.79, 101637.81, 0.29,-0.63, 9.58, 17940
24.79, 101637.81, 0.21,-0.57, 9.62, 17945
24.79, 101637.81, 0.25,-0.56, 9.62, 17950
24.79, 101637.81, 0.25,-0.57, 9.58, 17955
24.79, 101637.81, 0.19,-0.59, 9.66, 17960
24.79, 101638.92, 0.19,-0.56, 9.58, 17965
24.79, 101638.92, 0.25,-0.59, 9.56, 17970
24.79, 101638.92, 0.23,-0.48, 9.54, 17975
24.79, 101638.92, 0.31,-0.52, 9.66, 17980
24.79, 101638.92, 0.31,-0.57, 9.62, 17985
24.79, 101638.92, 0.21,-0.54, 9.69, 17990
24.79, 101638.92, 0.15,-0.65, 9.75, 17995
24.79, 101638.26, 0.23,-0.52, 9.77, 18000
24.79, 101638.26, 0.23,-0.65, 9.69, 18005
24.79, 101638.26, 0.17,-0.59, 9.50, 18010
24.79, 101638.26, 0.23,-0.61, 9.64, 18015
24.79, 101638.26, 0.25,-0.57, 9.60, 18020
24.79, 101638.26, 0.17,-0.61, 9.67, 18025
24.79, 101638.26, 0.23,-0.57, 9.66, 18030
24.79, 101640.73, 0.21,-0.59, 9.62, 18035
24.79, 101640.73, 0.29,-0.57, 9.62, 18040
24.79, 101640.73, 0.23,-0.59, 9.62, 18045
24.79, 101640.73, 0.25,-0.57, 9.66, 18050
24.79, 101640.73, 0.19,-0.59, 9.69, 18055
24.79, 101640.73, 0.21,-0.52, 9.58, 18060
24.79, 101640.73, 0.19,-0.59, 9.62, 18065
24.79, 101640.73, 0.27,-0.61, 9.64, 18070
24.79, 101638.59, 0.19,-0.54, 9.64, 18075
24.79, 101638.59, 0.23,-0.56, 9.60, 18080
24.79, 101638.59, 0.21,-0.61, 9.66, 18085
24.79, 101638.59, 0.21,-0.67, 9.69, 18090
24.79, 101638.59, 0.23,-0.57, 9.69, 18095
24.79, 101638.59, 0.21,-0.57, 9.56, 18100
24.79, 101638.59, 0.25,-0.63, 9.45, 18105
24.79, 101639.19, 0.27,-0.59, 9.60, 18110
24.79, 101639.19, 0.21,-0.63, 9.62, 18115
24.79, 101639.19, 0.25,-0.59, 9.66, 18120
24.79, 101639.19, 0.23,-0.56, 9.66, 18125
24.79, 101639.19, 0.23,-0.57, 9.66, 18130
24.79, 101639.19, 0.23,-0.61, 9.56, 18135
24.79, 101639.19, 0.19,-0.61, 9.58, 18140
24.79, 101640.41, 0.19,-0.61, 9.54, 18145
24.79, 101640.41, 0.25,-0.57, 9.64, 18150
24.79, 101640.41, 0.29,-0.61, 9.58, 18155
24.79, 101640.41, 0.25,-0.54, 9.66, 18160
24.79, 101640.41, 0.19,-0.61, 9.64, 18165
24.79, 101640.41, 0.19,-0.54, 9.62, 18170
24.79, 101640.41, 0.27,-0.56, 9.66, 18175
24.79, 101637.54, 0.23,-0.50, 9.60, 18180
24.79, 101637.54, 0.19,-0.54, 9.69, 18185
24.79, 101637.54, 0.17,-0.59, 9.67, 18190
24.79, 101637.54, 0.21,-0.57, 9.52, 18195
24.79, 101637.54, 0.17,-0.75, 9.64, 18200
24.79, 101637.54, 0.19,-0.63, 9.66, 18205
24.79, 101637.54, 0.27,-0.61, 9.52, 18210
24.79, 101639.19, 0.19,-0.59, 9.56, 18215
24.79, 101639.19, 0.27,-0.57, 9.64, 18220
24.79, 101639.19, 0.27,-0.65, 9.60, 18225
24.79, 101639.19, 0.21,-0.56, 9.58, 18230
24.79, 101639.19, 0.19,-0.52, 9.67, 18235
24.79, 101639.19, 0.21,-0.54, 9.64, 18243
24.79, 101639.19, 0.27,-0.57, 9.67, 18247
24.79, 101639.69, 0.25,-0.56, 9.67, 18252
24.79, 101639.69, 0.23,-0.61, 9.64, 18257
24.79, 101639.69, 0.23,-0.56, 9.54, 18262
24.79, 101639.69, 0.25,-0.57, 9.75, 18267
24.79, 101639.69, 0.21,-0.54, 9.52, 18272
24.79, 101639.69, 0.15,-0.65, 9.66, 18277
24.79, 101639.69, 0.19,-0.52, 9.56, 18282
24.79, 101639.50, 0.19,-0.52, 9.54, 18287
24.79, 101639.50, 0.17,-0.57, 9.37, 18292
24.79, 101639.50, 0.25,-0.54, 9.75, 18297
24.79, 101639.50, 0.23,-0.59, 9.81, 18302
24.79, 101639.50, 0.21,-0.56, 9.69, 18307
24.79, 101639.50, 0.17,-0.57, 9.64, 18312
24.79, 101639.50, 0.17,-0.59, 9.66, 18317
24.79, 101641.56, 0.17,-0.61, 9.66, 18322
24.79, 101641.56, 0.21,-0.56, 9.62, 18327
24.79, 101641.56, 0.25,-0.56, 9.60, 18332
24.79, 101641.56, 0.19,-0.46, 9.60, 18337
24.79, 101641.56, 0.25,-0.57, 9.67, 18342
24.79, 101641.56, 0.25,-0.57, 9.64, 18347
24.79, 101641.56, 0.25,-0.61, 9.60, 18352
24.79, 101644.12, 0.27,-0.56, 9.58, 18357
24.79, 101644.12, 0.21,-0.56, 9.66, 18362
24.79, 101644.12, 0.27,-0.54, 9.66, 18367
24.79, 101644.12, 0.21,-0.56, 9.67, 18372
24.79, 101644.12, 0.21,-0.54, 9.66, 18377
24.79, 101644.12, 0.25,-0.65, 9.56, 18382
24.79, 101644.12, 0.27,-0.61, 9.50, 18387
24.79, 101640.08, 0.27,-0.63, 9.66, 18392
24.79, 101640.08, 0.27,-0.61, 9.54, 18397
24.79, 101640.08, 0.23,-0.61, 9.75, 18402
24.79, 101640.08, 0.23,-0.57, 9.81, 18407
24.79, 101640.08, 0.23,-0.59, 9.66, 18412
24.79, 101640.08, 0.33,-0.63, 9.56, 18417
24.79, 101640.08, 0.33,-0.57, 9.58, 18422
24.79, 101639.91, 0.31,-0.57, 9.54, 18427
24.79, 101639.91, 0.25,-0.61, 9.66, 18432
24.79, 101639.91, 0.27,-0.61, 9.66, 18437
24.79, 101639.91, 0.15,-0.52, 9.60, 18442
24.79, 101639.91, 0.15,-0.56, 9.66, 18447
24.79, 101639.91, 0.17,-0.59, 9.60, 18452
24.79, 101639.91, 0.17,-0.61, 9.69, 18457
24.79, 101638.31, 0.17,-0.63, 9.66, 18462
24.79, 101638.31, 0.25,-0.59, 9.64, 18467
24.79, 101638.31, 0.27,-0.54, 9.66, 18472
24.79, 101638.31, 0.29,-0.54, 9.66, 18477
24.79, 101638.31, 0.29,-0.54, 9.60, 18482
24.79, 101638.31, 0.23,-0.57, 9.64, 18487
24.79, 101638.31, 0.19,-0.61, 9.54, 18492
24.79, 101638.53, 0.25,-0.61, 9.48, 18497
24.79, 101638.53, 0.25,-0.54, 9.64, 18502
24.79, 101638.53, 0.27,-0.65, 9.64, 18507
24.79, 101638.53, 0.29,-0.63, 9.73, 18512
24.79, 101638.53, 0.29,-0.61, 9.64, 18517
24.79, 101638.53, 0.33,-0.61, 9.64, 18522
24.79, 101638.53, 0.25,-0.56, 9.60, 18527
24.79, 101641.98, 0.23,-0.56, 9.58, 18532
24.79, 101641.98, 0.23,-0.57, 9.58, 18537
24.79, 101641.98, 0.23,-0.54, 9.66, 18542
24.79, 101641.98, 0.25,-0.56, 9.54, 18547
24.79, 101641.98, 0.19,-0.52, 9.64, 18552
24.79, 101641.98, 0.23,-0.54, 9.66, 18557
24.79, 101641.98, 0.25,-0.57, 9.64, 18562
24.79, 101641.71, 0.23,-0.54, 9.64, 18567
24.79, 101641.71, 0.27,-0.59, 9.66, 18572
24.79, 101641.71, 0.23,-0.57, 9.67, 18577
24.79, 101641.71, 0.23,-0.57, 9.66, 18582
24.79, 101641.71, 0.23,-0.56, 9.66, 18587
24.79, 101641.71, 0.23,-0.54, 9.58, 18592
24.79, 101641.71, 0.21,-0.56, 9.58, 18597
24.79, 101641.71, 0.19,-0.54, 9.58, 18602
24.79, 101637.93, 0.15,-0.52, 9.58, 18607
24.79, 101637.93, 0.13,-0.65, 9.67, 18612
24.79, 101637.93, 0.29,-0.61, 9.79, 18617
24.79, 101637.93, 0.23,-0.65, 9.64, 18622
24.79, 101637.93, 0.19,-0.59, 9.64, 18627
24.79, 101637.93, 0.25,-0.67, 9.67, 18632
24.79, 101637.93, 0.21,-0.73, 9.66, 18637
24.79, 101639.84, 0.31,-0.67, 9.62, 18642
24.79, 101639.84, 0.27,-0.57, 9.64, 18647
24.79, 101639.84, 0.19,-0.63, 9.73, 18652
24.79, 101639.84, 0.21,-0.65, 9.64, 18657
24.79, 101639.84, 0.31,-0.65, 9.62, 18662
24.79, 101639.84, 0.29,-0.57, 9.66, 18667
24.79, 101639.84, 0.31,-0.61, 9.64, 18672
24.79, 101641.39, 0.33,-0.61, 9.62, 18677
24.79, 101641.39, 0.29,-0.54, 9.62, 18682
24.79, 101641.39, 0.31,-0.61, 9.58, 18687
24.79, 101641.39, 0.31,-0.61, 9.62, 18692
24.79, 101641.39, 0.21,-0.61, 9.60, 18697
24.79, 101641.39, 0.23,-0.56, 9.60, 18702
24.79, 101641.39, 0.31,-0.56, 9.60, 18707
24.79, 101641.66, 0.23,-0.52, 9.54, 18712
24.79, 101641.66, 0.25,-0.57, 9.58, 18717
24.79, 101641.66, 0.23,-0.54, 9.58, 18722
24.79, 101641.66, 0.23,-0.52, 9.64, 18727
24.79, 101641.66, 0.23,-0.59, 9.58, 18732
24.79, 101641.66, 0.23,-0.59, 9.60, 18737
24.79, 101641.66, 0.19,-0.56, 9.83, 18744
24.79, 101638.75, 0.13,-0.57, 9.77, 18749
24.79, 101638.75, 0.15,-0.59, 9.67, 18754
24.79, 101638.75, 0.25,-0.63, 9.67, 18759
24.79, 101638.75, 0.23,-0.52, 9.67, 18764
24.79, 101638.75, 0.11,-0.56, 9.60, 18769
24.79, 101638.75, 0.23,-0.61, 9.62, 18774
24.79, 101638.75, 0.17,-0.61, 9.64, 18779
24.79, 101637.20, 0.23,-0.57, 9.66, 18784
24.79, 101637.20, 0.19,-0.59, 9.67, 18789
24.79, 101637.20, 0.19,-0.59, 9.58, 18794
24.79, 101637.20, 0.15,-0.57, 9.58, 18799
24.79, 101637.20, 0.17,-0.56, 9.60, 18804
24.79, 101637.20, 0.17,-0.63, 9.62, 18809
24.79, 101637.20, 0.17,-0.59, 9.62, 18814
24.79, 101640.22, 0.21,-0.57, 9.67, 18819
24.79, 101640.22, 0.19,-0.65, 9.67, 18824
24.79, 101640.22, 0.21,-0.63, 9.67, 18829
24.79, 101640.22, 0.19,-0.69, 9.64, 18834
24.79, 101640.22, 0.31,-0.61, 9.67, 18839
24.79, 101640.22, 0.33,-0.67, 9.77, 18844
24.79, 101640.22, 0.33,-0.57, 9.46, 18849
24.79, 101639.07, 0.23,-0.57, 9.67, 18854
24.79, 101639.07, 0.21,-0.57, 9.71, 18859
24.79, 101639.07, 0.27,-0.54, 9.41, 18864
24.79, 101639.07, 0.25,-0.57, 9.52, 18869
24.79, 101639.07, 0.27,-0.48, 9.56, 18874
24.79, 101639.07, 0.29,-0.56, 9.58, 18879
24.79, 101639.07, 0.29,-0.56, 9.58, 18884
24.79, 101638.42, 0.21,-0.61, 9.60, 18889
24.79, 101638.42, 0.27,-0.57, 9.58, 18894
24.79, 101638.42, 0.25,-0.56, 9.56, 18899
24.79, 101638.42, 0.21,-0.56, 9.62, 18904
24.79, 101638.42, 0.23,-0.57, 9.67, 18909
24.79, 101638.42, 0.29,-0.52, 9.64, 18914
24.79, 101638.42, 0.25,-0.56, 9.66, 18919
24.79, 101638.26, 0.21,-0.65, 9.62, 18924
24.79, 101638.26, 0.25,-0.61, 9.58, 18929
24.79, 101638.26, 0.17,-0.52, 9.62, 18934
24.79, 101638.26, 0.15,-0.59, 9.66, 18939
24.79, 101638.26, 0.19,-0.65, 9.64, 18944
24.79, 101638.26, 0.21,-0.57, 9.67, 18949
24.79, 101638.26, 0.19,-0.57, 9.62, 18954
24.79, 101638.92, 0.21,-0.56, 9.64, 18959
24.79, 101638.92, 0.21,-0.61, 9.64, 18964
24.79, 101638.92, 0.29,-0.57, 9.75, 18969
24.79, 101638.92, 0.25,-0.50, 9.62, 18974
24.79, 101638.92, 0.21,-0.44, 9.67, 18979
24.79, 101638.92, 0.23,-0.52, 9.60, 18984
24.79, 101638.92, 0.17,-0.63, 9.73, 18989
24.79, 101639.50, 0.19,-0.63, 9.64, 18994
24.79, 101639.50, 0.19,-0.50, 9.60, 18999
24.79, 101639.50, 0.27,-0.57, 9.62, 19004
24.79, 101639.50, 0.23,-0.61, 9.54, 19009
24.79, 101639.50, 0.23,-0.59, 9.66, 19014
24.79, 101639.50, 0.19,-0.61, 9.62, 19019
24.79, 101639.50, 0.23,-0.63, 9.56, 19024
24.79, 101638.75, 0.29,-0.57, 9.58, 19029
24.79, 101638.75, 0.31,-0.57, 9.67, 19034
24.79, 101638.75, 0.31,-0.59, 9.62, 19039
24.79, 101638.75, 0.31,-0.57, 9.58, 19044
24.79, 101638.75, 0.23,-0.50, 9.60, 19049
24.79, 101638.75, 0.23,-0.56, 9.64, 19054
24.79, 101638.75, 0.25,-0.59, 9.62, 19059
24.79, 101642.27, 0.27,-0.65, 9.60, 19064
24.79, 101642.27, 0.25,-0.61, 9.62, 19069
24.79, 101642.27, 0.17,-0.57, 9.67, 19074
24.79, 101642.27, 0.15,-0.59, 9.58, 19079
24.79, 101642.27, 0.27,-0.57, 9.56, 19084
24.79, 101642.27, 0.27,-0.56, 9.71, 19089
24.79, 101642.27, 0.27,-0.57, 9.66, 19094
24.79, 101642.27, 0.17,-0.54, 9.81, 19099
24.79, 101638.92, 0.17,-0.56, 9.69, 19104
24.79, 101638.92, 0.19,-0.54, 9.71, 19109
24.79, 101638.92, 0.25,-0.56, 9.69, 19114
24.79, 101638.92, 0.29,-0.46, 9.58, 19119
24.79, 101638.92, 0.21,-0.57, 9.62, 19124
24.79, 101638.92, 0.21,-0.54, 9.64, 19129
24.79, 101638.92, 0.17,-0.57, 9.62, 19134
24.79, 101641.55, 0.13,-0.57, 9.58, 19139
24.79, 101641.55, 0.21,-0.57, 9.67, 19144
24.79, 101641.55, 0.25,-0.61, 9.58, 19149
24.79, 101641.55, 0.21,-0.57, 9.58, 19154
24.79, 101641.55, 0.23,-0.57, 9.60, 19159
24.79, 101641.55, 0.25,-0.59, 9.60, 19164
24.79, 101641.55, 0.19,-0.57, 9.64, 19169
24.79, 101642.37, 0.23,-0.63, 9.66, 19174
24.79, 101642.37, 0.21,-0.52, 9.67, 19179
24.79, 101642.37, 0.13,-0.57, 9.67, 19184
24.79, 101642.37, 0.19,-0.52, 9.62, 19189
24.79, 101642.37, 0.25,-0.50, 9.60, 19194
24.79, 101642.37, 0.17,-0.46, 9.56, 19199
24.79, 101642.37, 0.21,-0.57, 9.60, 19204
24.79, 101641.55, 0.25,-0.57, 9.81, 19209
24.79, 101641.55, 0.17,-0.54, 9.54, 19214
24.79, 101641.55, 0.25,-0.57, 9.54, 19219
24.79, 101641.55, 0.25,-0.65, 9.48, 19224
24.79, 101641.55, 0.25,-0.44, 9.52, 19229
24.79, 101641.55, 0.21,-0.56, 9.50, 19234
24.79, 101641.55, 0.29,-0.59, 9.52, 19239
24.79, 101640.00, 0.29,-0.57, 9.58, 19247
24.79, 101640.00, 0.17,-0.57, 9.58, 19251
24.79, 101640.00, 0.27,-0.59, 9.56, 19256
24.79, 101640.00, 0.21,-0.61, 9.64, 19261
24.79, 101640.00, 0.21,-0.61, 9.60, 19266
24.79, 101640.00, 0.29,-0.59, 9.58, 19271
24.79, 101640.00, 0.21,-0.61, 9.56, 19276
24.79, 101638.36, 0.15,-0.63, 9.58, 19281
24.79, 101638.36, 0.21,-0.63, 9.73, 19286
24.79, 101638.36, 0.21,-0.67, 9.62, 19291
24.79, 101638.36, 0.27,-0.54, 9.71, 19296
24.79, 101638.36, 0.23,-0.57, 9.60, 19301
24.79, 101638.36, 0.21,-0.54, 9.54, 19306
24.79, 101638.36, 0.13,-0.54, 9.58, 19311
24.79, 101641.56, 0.17,-0.57, 9.79, 19316
24.79, 101641.56, 0.21,-0.61, 9.69, 19321
24.79, 101641.56, 0.29,-0.57, 9.64, 19326
24.79, 101641.56, 0.27,-0.57, 9.60, 19331
24.79, 101641.56, 0.23,-0.54, 9.58, 19336
24.79, 101641.56, 0.21,-0.59, 9.69, 19341
24.79, 101641.56, 0.25,-0.57, 9.62, 19346
24.79, 101641.71, 0.21,-0.50, 9.69, 19351
24.79, 101641.71, 0.21,-0.56, 9.60, 19356
24.79, 101641.71, 0.17,-0.50, 9.66, 19361
24.79, 101641.71, 0.23,-0.54, 9.60, 19366
24.79, 101641.71, 0.19,-0.56, 9.58, 19371
24.79, 101641.71, 0.17,-0.59, 9.60, 19376
24.79, 101641.71, 0.27,-0.56, 9.66, 19381
24.79, 101639.34, 0.25,-0.57, 9.60, 19386
24.79, 101639.34, 0.23,-0.59, 9.60, 19391
24.79, 101639.34, 0.19,-0.65, 9.58, 19396
24.79, 101639.34, 0.19,-0.57, 9.67, 19401
24.79, 101639.34, 0.15,-0.59, 9.64, 19406
24.79, 101639.34, 0.13,-0.56, 9.52, 19411
24.79, 101639.34, 0.15,-0.52, 9.41, 19416
24.79, 101639.23, 0.15,-0.57, 9.71, 19421
24.79, 101639.23, 0.17,-0.61, 9.60, 19426
24.79, 101639.23, 0.15,-0.56, 9.58, 19431
24.79, 101639.23, 0.17,-0.57, 9.58, 19436
24.79, 101639.23, 0.17,-0.57, 9.62, 19441
24.79, 101639.23, 0.21,-0.63, 9.67, 19446
24.79, 101639.23, 0.17,-0.61, 9.69, 19451
24.79, 101638.42, 0.29,-0.56, 9.73, 19456
24.79, 101638.42, 0.27,-0.65, 9.66, 19461
24.79, 101638.42, 0.25,-0.59, 9.58, 19466
24.79, 101638.42, 0.27,-0.61, 9.64, 19471
24.79, 101638.42, 0.25,-0.57, 9.66, 19476
24.79, 101638.42, 0.17,-0.56, 9.66, 19481
24.79, 101638.42, 0.23,-0.59, 9.62, 19486
24.79, 101640.72, 0.25,-0.54, 9.69, 19491
24.79, 101640.72, 0.21,-0.63, 9.62, 19496
24.79, 101640.72, 0.19,-0.61, 9.69, 19501
24.79, 101640.72, 0.23,-0.59, 9.64, 19506
24.79, 101640.72, 0.19,-0.54, 9.52, 19511
24.79, 101640.72, 0.27,-0.57, 9.62, 19516
24.79, 101640.72, 0.25,-0.54, 9.69, 19521
24.79, 101639.67, 0.23,-0.48, 9.45, 19526
24.79, 101639.67, 0.15,-0.44, 9.48, 19531
24.79, 101639.67, 0.21,-0.57, 9.54, 19536
24.79, 101639.67, 0.17,-0.63, 9.62, 19541
24.79, 101639.67, 0.31,-0.61, 9.56, 19546
24.79, 101639.67, 0.23,-0.52, 9.58, 19551
24.79, 101639.67, 0.17,-0.59, 9.71, 19556
24.79, 101640.17, 0.19,-0.65, 9.71, 19561
24.79, 101640.17, 0.25,-0.61, 9.67, 19566
24.79, 101640.17, 0.29,-0.59, 9.66, 19571
24.79, 101640.17, 0.29,-0.57, 9.60, 19576
24.79, 101640.17, 0.21,-0.57, 9.69, 19581
24.79, 101640.17, 0.25,-0.56, 9.66, 19586
24.79, 101640.17, 0.29,-0.57, 9.60, 19591
24.79, 101640.99, 0.23,-0.57, 9.62, 19596
24.79, 101641.88, 0.21,-0.57, 9.66, 19601
24.79, 101641.88, 0.25,-0.59, 9.58, 19606
24.79, 101641.88, 0.25,-0.52, 9.62, 19611
24.79, 101641.88, 0.21,-0.59, 9.66, 19616
24.79, 101641.88, 0.25,-0.59, 9.64, 19621
24.79, 101641.88, 0.19,-0.56, 9.54, 19626
