External Temperature (C), Barometric Pressure (Pa), Acceleration X, Acceleration Y, Acceleration Z
24.69, 101637.84, 0.25,-0.52, 9.69, 2787
24.69, 101637.45, 0.21,-0.52, 9.60, 2797
24.69, 101637.45, 0.23,-0.57, 9.64, 2802
24.69, 101637.45, 0.23,-0.61, 9.60, 2807
24.69, 101637.45, 0.21,-0.63, 9.56, 2812
24.69, 101637.45, 0.27,-0.59, 9.62, 2817
24.69, 101637.45, 0.19,-0.63, 9.60, 2822
24.69, 101636.14, 0.15,-0.61, 9.64, 2827
24.69, 101636.14, 0.19,-0.56, 9.69, 2832
24.69, 101636.14, 0.15,-0.50, 9.62, 2837
24.69, 101636.14, 0.19,-0.48, 9.62, 2842
24.69, 101636.14, 0.19,-0.54, 9.62, 2847
24.69, 101636.14, 0.25,-0.54, 9.67, 2852
24.69, 101636.14, 0.19,-0.59, 9.43, 2857
24.69, 101634.11, 0.19,-0.65, 9.54, 2862
24.69, 101634.11, 0.13,-0.56, 9.54, 2867
24.69, 101634.11, 0.21,-0.61, 9.67, 2872
24.69, 101634.11, 0.27,-0.67, 9.69, 2877
24.69, 101634.11, 0.25,-0.59, 9.58, 2882
24.69, 101634.11, 0.25,-0.54, 9.58, 2887
24.69, 101634.11, 0.23,-0.54, 9.58, 2892
24.69, 101636.14, 0.23,-0.50, 9.67, 2897
24.69, 101636.14, 0.25,-0.46, 9.66, 2902
24.69, 101636.14, 0.29,-0.50, 9.62, 2907
24.69, 101636.14, 0.21,-0.63, 9.62, 2912
24.69, 101636.14, 0.23,-0.65, 9.62, 2917
24.69, 101636.14, 0.25,-0.65, 9.64, 2922
24.69, 101636.14, 0.25,-0.67, 9.58, 2927
24.69, 101634.77, 0.25,-0.59, 9.67, 2932
24.69, 101634.77, 0.25,-0.52, 9.62, 2937
24.69, 101634.77, 0.29,-0.57, 9.62, 2942
24.69, 101634.77, 0.21,-0.56, 9.60, 2947
24.69, 101634.77, 0.25,-0.56, 9.66, 2952
24.69, 101634.77, 0.23,-0.50, 9.67, 2957
24.69, 101634.77, 0.31,-0.52, 9.69, 2962
24.69, 101634.77, 0.25,-0.57, 9.58, 2967
24.69, 101637.12, 0.19,-0.65, 9.62, 2972
24.69, 101637.12, 0.27,-0.63, 9.66, 2977
24.69, 101637.12, 0.19,-0.56, 9.54, 2982
24.69, 101637.12, 0.23,-0.65, 9.64, 2987
24.69, 101637.12, 0.17,-0.65, 9.52, 2992
24.69, 101637.12, 0.25,-0.59, 9.60, 2997
24.69, 101637.12, 0.27,-0.59, 9.64, 3002
24.69, 101634.44, 0.21,-0.54, 9.66, 3007
24.69, 101634.44, 0.15,-0.59, 9.64, 3012
24.69, 101634.44, 0.21,-0.54, 9.60, 3017
24.69, 101634.44, 0.29,-0.61, 9.66, 3022
24.69, 101634.44, 0.21,-0.61, 9.73, 3027
24.69, 101634.44, 0.25,-0.65, 9.67, 3032
24.69, 101634.44, 0.27,-0.59, 9.60, 3037
24.69, 101636.30, 0.29,-0.57, 9.52, 3042
24.69, 101636.30, 0.27,-0.57, 9.58, 3047
24.69, 101636.30, 0.27,-0.54, 9.56, 3052
24.69, 101636.30, 0.23,-0.54, 9.56, 3057
24.69, 101636.30, 0.21,-0.54, 9.60, 3062
24.69, 101636.30, 0.27,-0.56, 9.64, 3067
24.69, 101636.30, 0.25,-0.52, 9.71, 3072
24.69, 101635.26, 0.21,-0.48, 9.71, 3077
24.69, 101635.26, 0.17,-0.61, 9.52, 3082
24.69, 101635.26, 0.27,-0.63, 9.73, 3087
24.69, 101635.26, 0.27,-0.48, 9.52, 3092
24.69, 101635.26, 0.27,-0.65, 9.54, 3097
24.69, 101635.26, 0.21,-0.61, 9.50, 3102
24.69, 101635.26, 0.17,-0.52, 9.62, 3107
24.69, 101636.14, 0.25,-0.52, 9.62, 3112
24.69, 101636.14, 0.19,-0.56, 9.60, 3117
24.69, 101636.14, 0.19,-0.52, 9.67, 3122
24.69, 101636.14, 0.21,-0.50, 9.69, 3127
24.69, 101636.14, 0.25,-0.54, 9.67, 3132
24.69, 101636.14, 0.19,-0.54, 9.67, 3137
24.69, 101636.14, 0.15,-0.52, 9.66, 3142
24.69, 101635.48, 0.15,-0.57, 9.60, 3147
24.69, 101635.48, 0.21,-0.61, 9.54, 3152
24.69, 101635.48, 0.17,-0.59, 9.58, 3157
24.69, 101635.48, 0.19,-0.61, 9.60, 3162
24.69, 101635.48, 0.17,-0.56, 9.66, 3167
24.69, 101635.48, 0.25,-0.59, 9.66, 3172
24.69, 101635.48, 0.23,-0.57, 9.67, 3177
24.69, 101635.16, 0.27,-0.61, 9.62, 3182
24.69, 101635.16, 0.31,-0.63, 9.67, 3187
24.69, 101635.16, 0.19,-0.52, 9.79, 3192
24.69, 101635.16, 0.15,-0.52, 9.54, 3197
24.69, 101635.16, 0.17,-0.59, 9.29, 3202
24.69, 101635.16, 0.21,-0.67, 9.50, 3207
24.69, 101635.16, 0.23,-0.61, 9.56, 3212
24.69, 101636.08, 0.27,-0.57, 9.56, 3217
24.69, 101636.08, 0.25,-0.52, 9.56, 3222
24.69, 101636.08, 0.25,-0.56, 9.58, 3227
24.69, 101636.08, 0.29,-0.57, 9.60, 3232
24.69, 101636.08, 0.25,-0.57, 9.66, 3237
24.69, 101636.08, 0.29,-0.59, 9.71, 3242
24.69, 101636.08, 0.23,-0.52, 9.69, 3247
24.69, 101641.31, 0.23,-0.57, 9.64, 3252
24.69, 101641.31, 0.21,-0.56, 9.67, 3257
24.69, 101641.31, 0.19,-0.59, 9.60, 3262
24.69, 101641.31, 0.23,-0.57, 9.60, 3267
24.69, 101641.31, 0.25,-0.59, 9.66, 3272
24.69, 101641.31, 0.23,-0.59, 9.64, 3277
24.69, 101641.31, 0.23,-0.56, 9.71, 3282
24.69, 101639.17, 0.19,-0.56, 9.67, 3287
24.69, 101639.17, 0.17,-0.57, 9.64, 3292
24.69, 101639.17, 0.25,-0.54, 9.73, 3300
24.69, 101639.17, 0.25,-0.56, 9.69, 3304
24.69, 101639.17, 0.27,-0.50, 9.62, 3309
24.69, 101639.17, 0.17,-0.59, 9.60, 3314
24.69, 101639.17, 0.19,-0.63, 9.56, 3319
24.69, 101638.51, 0.17,-0.56, 9.66, 3324
24.69, 101638.51, 0.19,-0.54, 9.67, 3329
24.69, 101638.51, 0.25,-0.61, 9.67, 3334
24.69, 101638.51, 0.21,-0.63, 9.62, 3339
24.69, 101638.51, 0.25,-0.59, 9.67, 3344
24.69, 101638.51, 0.23,-0.52, 9.64, 3349
24.69, 101638.51, 0.29,-0.57, 9.64, 3354
24.69, 101638.22, 0.29,-0.56, 9.60, 3359
24.69, 101638.22, 0.25,-0.54, 9.62, 3364
24.69, 101638.22, 0.31,-0.52, 9.66, 3369
24.69, 101638.22, 0.23,-0.54, 9.67, 3374
24.69, 101638.22, 0.25,-0.56, 9.60, 3379
24.69, 101638.22, 0.11,-0.63, 9.56, 3384
24.69, 101638.22, 0.13,-0.50, 9.54, 3389
24.69, 101640.31, 0.23,-0.57, 9.62, 3394
24.69, 101640.31, 0.23,-0.59, 9.64, 3399
24.69, 101640.31, 0.21,-0.56, 9.58, 3404
24.69, 101640.31, 0.25,-0.56, 9.29, 3409
24.69, 101640.31, 0.27,-0.54, 9.52, 3414
24.69, 101640.31, 0.23,-0.59, 9.56, 3419
24.69, 101640.31, 0.21,-0.56, 9.54, 3424
24.69, 101637.68, 0.23,-0.56, 9.58, 3429
24.69, 101637.68, 0.29,-0.59, 9.66, 3434
24.69, 101637.68, 0.27,-0.54, 9.60, 3439
24.69, 101637.68, 0.19,-0.57, 9.58, 3444
24.69, 101637.68, 0.21,-0.54, 9.62, 3449
24.69, 101637.68, 0.25,-0.59, 9.64, 3454
24.69, 101637.68, 0.23,-0.54, 9.60, 3459
24.69, 101639.33, 0.23,-0.56, 9.60, 3464
24.69, 101639.33, 0.17,-0.48, 9.60, 3469
24.69, 101639.33, 0.21,-0.57, 9.64, 3474
24.69, 101639.33, 0.17,-0.56, 9.66, 3479
24.69, 101639.33, 0.21,-0.57, 9.67, 3484
24.69, 101639.33, 0.23,-0.57, 9.64, 3489
24.69, 101639.33, 0.23,-0.63, 9.52, 3494
24.69, 101639.33, 0.19,-0.67, 9.54, 3499
24.69, 101634.94, 0.23,-0.56, 9.58, 3504
24.69, 101634.94, 0.15,-0.56, 9.66, 3509
24.69, 101634.94, 0.27,-0.59, 9.46, 3514
24.69, 101634.94, 0.25,-0.59, 9.60, 3519
24.69, 101634.94, 0.21,-0.50, 9.66, 3524
24.69, 101634.94, 0.17,-0.65, 9.62, 3529
24.69, 101634.94, 0.25,-0.61, 9.62, 3534
24.69, 101638.17, 0.25,-0.54, 9.56, 3539
24.69, 101638.17, 0.27,-0.65, 9.64, 3544
24.69, 101638.17, 0.21,-0.57, 9.69, 3549
24.69, 101638.17, 0.23,-0.54, 9.60, 3554
24.69, 101638.17, 0.19,-0.57, 9.60, 3559
24.69, 101638.17, 0.17,-0.54, 9.66, 3564
24.69, 101638.17, 0.19,-0.56, 9.58, 3569
24.69, 101638.34, 0.23,-0.56, 9.54, 3574
24.69, 101638.34, 0.19,-0.54, 9.62, 3579
24.69, 101638.34, 0.17,-0.56, 9.58, 3584
24.69, 101638.34, 0.21,-0.59, 9.58, 3589
24.69, 101638.34, 0.23,-0.56, 9.60, 3594
24.69, 101638.34, 0.23,-0.57, 9.69, 3599
24.69, 101638.34, 0.17,-0.56, 9.67, 3604
24.69, 101638.28, 0.25,-0.52, 9.62, 3609
24.69, 101638.28, 0.25,-0.46, 9.64, 3614
24.69, 101638.28, 0.25,-0.52, 9.71, 3619
24.69, 101638.28, 0.27,-0.52, 9.46, 3624
24.69, 101638.28, 0.27,-0.57, 9.56, 3629
24.69, 101638.28, 0.31,-0.52, 9.56, 3634
24.69, 101638.28, 0.33,-0.50, 9.56, 3639
24.69, 101637.30, 0.19,-0.54, 9.66, 3644
24.69, 101637.30, 0.29,-0.57, 9.58, 3649
24.69, 101637.30, 0.21,-0.54, 9.58, 3654
24.69, 101637.30, 0.29,-0.63, 9.58, 3659
24.69, 101637.30, 0.31,-0.59, 9.69, 3664
24.69, 101637.30, 0.31,-0.59, 9.64, 3669
24.69, 101637.30, 0.19,-0.56, 9.64, 3674
24.69, 101637.34, 0.23,-0.50, 9.62, 3679
24.69, 101637.34, 0.17,-0.57, 9.64, 3684
24.69, 101637.34, 0.25,-0.52, 9.64, 3689
24.69, 101637.34, 0.21,-0.48, 9.64, 3694
24.69, 101637.34, 0.21,-0.57, 9.62, 3699
24.69, 101637.34, 0.19,-0.57, 9.67, 3704
24.69, 101637.34, 0.25,-0.59, 9.54, 3709
24.69, 101636.69, 0.23,-0.63, 9.50, 3714
24.69, 101636.69, 0.23,-0.56, 9.56, 3719
24.69, 101636.69, 0.21,-0.65, 9.66, 3724
24.69, 101636.69, 0.17,-0.56, 9.54, 3729
24.69, 101636.69, 0.19,-0.67, 9.45, 3734
24.69, 101636.69, 0.25,-0.33, 9.50, 3739
24.69, 101636.69, 0.27,-0.54, 9.62, 3744
24.69, 101638.84, 0.21,-0.57, 9.64, 3749
24.69, 101638.84, 0.27,-0.59, 9.64, 3754
24.69, 101638.84, 0.19,-0.57, 9.67, 3759
24.69, 101638.84, 0.19,-0.65, 9.64, 3764
24.69, 101638.84, 0.19,-0.63, 9.64, 3769
24.69, 101638.84, 0.17,-0.59, 9.60, 3774
24.69, 101638.84, 0.17,-0.54, 9.58, 3779
24.69, 101637.02, 0.27,-0.67, 9.56, 3784
24.69, 101637.02, 0.27,-0.61, 9.64, 3789
24.69, 101637.02, 0.29,-0.61, 9.69, 3794
24.69, 101637.02, 0.27,-0.59, 9.64, 3802
24.69, 101637.02, 0.23,-0.65, 9.69, 3806
24.69, 101637.02, 0.25,-0.65, 9.64, 3811
24.69, 101637.02, 0.25,-0.63, 9.60, 3816
24.69, 101637.91, 0.21,-0.57, 9.73, 3821
24.69, 101637.91, 0.33,-0.57, 9.73, 3826
24.69, 101637.91, 0.27,-0.61, 9.37, 3831
24.69, 101637.91, 0.21,-0.54, 9.64, 3836
24.69, 101637.91, 0.17,-0.56, 9.58, 3841
24.69, 101637.91, 0.15,-0.48, 9.58, 3846
24.69, 101637.91, 0.25,-0.50, 9.54, 3851
24.69, 101638.07, 0.17,-0.54, 9.54, 3856
24.69, 101638.07, 0.25,-0.57, 9.60, 3861
24.69, 101638.07, 0.19,-0.59, 9.66, 3866
24.69, 101638.07, 0.25,-0.63, 9.52, 3871
24.69, 101638.07, 0.17,-0.63, 9.64, 3876
24.69, 101638.07, 0.17,-0.57, 9.67, 3881
24.69, 101638.07, 0.23,-0.59, 9.67, 3886
24.69, 101638.17, 0.23,-0.63, 9.62, 3891
24.69, 101638.17, 0.21,-0.54, 9.62, 3896
24.69, 101638.17, 0.25,-0.54, 9.60, 3901
24.69, 101638.17, 0.23,-0.59, 9.64, 3906
24.69, 101638.17, 0.17,-0.65, 9.66, 3911
24.69, 101638.17, 0.17,-0.57, 9.58, 3916
24.69, 101638.17, 0.27,-0.57, 9.71, 3921
24.69, 101638.56, 0.31,-0.63, 9.79, 3926
24.69, 101638.56, 0.25,-0.56, 9.52, 3931
24.69, 101638.56, 0.21,-0.50, 9.56, 3936
24.69, 101638.56, 0.21,-0.44, 9.50, 3941
24.69, 101638.56, 0.34,-0.48, 9.50, 3946
24.69, 101638.56, 0.27,-0.54, 9.54, 3951
24.69, 101638.56, 0.19,-0.61, 9.54, 3956
24.69, 101636.96, 0.31,-0.63, 9.60, 3961
24.69, 101636.96, 0.15,-0.65, 9.64, 3966
24.69, 101636.96, 0.29,-0.61, 9.64, 3971
24.69, 101636.96, 0.27,-0.54, 9.58, 3976
24.69, 101636.96, 0.23,-0.59, 9.60, 3981
24.69, 101636.96, 0.29,-0.56, 9.58, 3986
24.69, 101636.96, 0.23,-0.54, 9.62, 3991
24.69, 101636.96, 0.29,-0.57, 9.64, 3996
24.69, 101638.51, 0.29,-0.57, 9.64, 4001
24.69, 101638.51, 0.21,-0.56, 9.67, 4006
24.69, 101638.51, 0.23,-0.57, 9.64, 4011
24.69, 101638.51, 0.17,-0.54, 9.64, 4016
24.69, 101638.51, 0.19,-0.61, 9.62, 4021
24.69, 101638.51, 0.17,-0.54, 9.66, 4026
24.69, 101638.51, 0.17,-0.65, 9.60, 4031
24.69, 101640.47, 0.23,-0.61, 9.50, 4036
24.69, 101640.47, 0.23,-0.59, 9.62, 4041
24.69, 101640.47, 0.34,-0.57, 9.67, 4046
24.69, 101640.47, 0.23,-0.46, 9.52, 4051
24.69, 101640.47, 0.29,-0.52, 9.73, 4056
24.69, 101640.47, 0.29,-0.56, 9.46, 4061
24.69, 101640.47, 0.23,-0.52, 9.56, 4066
24.69, 101637.02, 0.21,-0.57, 9.58, 4071
24.69, 101637.02, 0.13,-0.56, 9.62, 4076
24.69, 101637.02, 0.23,-0.59, 9.58, 4081
24.69, 101637.02, 0.23,-0.57, 9.66, 4086
24.69, 101637.02, 0.23,-0.59, 9.60, 4091
24.69, 101637.02, 0.23,-0.56, 9.73, 4096
24.69, 101637.02, 0.21,-0.59, 9.67, 4101
24.69, 101640.88, 0.33,-0.61, 9.69, 4106
24.69, 101640.88, 0.29,-0.57, 9.66, 4111
24.69, 101640.88, 0.29,-0.56, 9.62, 4116
24.69, 101640.88, 0.27,-0.57, 9.62, 4121
24.69, 101640.88, 0.25,-0.54, 9.66, 4126
24.69, 101640.88, 0.25,-0.54, 9.62, 4131
24.69, 101640.88, 0.29,-0.59, 9.60, 4136
24.69, 101638.49, 0.29,-0.56, 9.62, 4141
24.69, 101638.49, 0.29,-0.52, 9.60, 4146
24.69, 101638.49, 0.29,-0.50, 9.69, 4151
24.69, 101638.49, 0.27,-0.61, 9.58, 4156
24.69, 101638.49, 0.25,-0.69, 9.54, 4161
24.69, 101638.49, 0.23,-0.63, 9.58, 4166
24.69, 101638.49, 0.23,-0.61, 9.56, 4171
24.69, 101639.31, 0.23,-0.56, 9.75, 4176
24.69, 101639.31, 0.21,-0.56, 9.69, 4181
24.69, 101639.31, 0.27,-0.54, 9.62, 4186
24.69, 101639.31, 0.11,-0.56, 9.62, 4191
24.69, 101639.31, 0.23,-0.57, 9.64, 4196
24.69, 101639.31, 0.17,-0.52, 9.60, 4201
24.69, 101639.31, 0.13,-0.50, 9.60, 4206
24.69, 101638.67, 0.15,-0.54, 9.60, 4211
24.69, 101638.67, 0.21,-0.57, 9.67, 4216
24.69, 101638.67, 0.19,-0.61, 9.62, 4221
24.69, 101638.67, 0.23,-0.61, 9.64, 4226
24.69, 101638.67, 0.23,-0.54, 9.58, 4231
24.69, 101638.67, 0.19,-0.57, 9.67, 4236
24.69, 101638.67, 0.21,-0.59, 9.62, 4241
24.69, 101641.46, 0.23,-0.59, 9.66, 4246
24.69, 101641.46, 0.23,-0.57, 9.56, 4251
24.69, 101641.46, 0.21,-0.50, 9.45, 4256
24.69, 101641.46, 0.25,-0.57, 9.52, 4261
24.69, 101641.46, 0.27,-0.54, 9.67, 4266
24.69, 101641.46, 0.25,-0.57, 9.52, 4271
24.69, 101641.46, 0.21,-0.56, 9.54, 4276
24.69, 101639.98, 0.21,-0.56, 9.79, 4281
24.69, 101639.98, 0.27,-0.65, 9.71, 4286
24.69, 101639.98, 0.23,-0.59, 9.58, 4291
24.69, 101639.98, 0.21,-0.65, 9.52, 4296
24.69, 101639.98, 0.21,-0.57, 9.58, 4304
24.69, 101639.98, 0.27,-0.61, 9.77, 4308
24.69, 101639.98, 0.23,-0.59, 9.66, 4313
24.69, 101640.66, 0.21,-0.59, 9.58, 4318
24.69, 101640.66, 0.23,-0.56, 9.56, 4323
24.69, 101640.66, 0.23,-0.50, 9.66, 4328
24.69, 101640.66, 0.23,-0.57, 9.58, 4333
24.69, 101640.66, 0.23,-0.61, 9.60, 4338
24.69, 101640.66, 0.23,-0.61, 9.71, 4343
24.69, 101640.66, 0.25,-0.57, 9.64, 4348
24.69, 101639.33, 0.21,-0.65, 9.58, 4353
24.69, 101639.33, 0.17,-0.56, 9.64, 4358
24.69, 101639.33, 0.21,-0.54, 9.71, 4363
24.69, 101639.33, 0.23,-0.56, 9.71, 4368
24.69, 101639.33, 0.29,-0.57, 9.50, 4373
24.69, 101639.33, 0.25,-0.54, 9.58, 4378
24.69, 101639.33, 0.21,-0.59, 9.62, 4383
24.69, 101640.47, 0.19,-0.52, 9.62, 4388
24.69, 101640.47, 0.27,-0.50, 9.60, 4393
24.69, 101640.47, 0.33,-0.57, 9.71, 4398
24.69, 101640.47, 0.29,-0.54, 9.60, 4403
24.69, 101640.47, 0.33,-0.54, 9.64, 4408
24.69, 101640.47, 0.23,-0.57, 9.58, 4413
24.69, 101640.47, 0.27,-0.57, 9.62, 4418
24.69, 101637.45, 0.21,-0.59, 9.58, 4423
24.69, 101637.45, 0.19,-0.52, 9.62, 4428
24.69, 101637.45, 0.27,-0.56, 9.66, 4433
24.69, 101637.45, 0.23,-0.54, 9.64, 4438
24.69, 101637.45, 0.23,-0.56, 9.64, 4443
24.69, 101637.45, 0.17,-0.52, 9.67, 4448
24.69, 101637.45, 0.25,-0.57, 9.60, 4453
24.69, 101638.56, 0.19,-0.57, 9.54, 4458
24.69, 101638.56, 0.21,-0.63, 9.52, 4463
24.69, 101638.56, 0.25,-0.50, 9.64, 4468
24.69, 101638.56, 0.21,-0.54, 9.62, 4473
24.69, 101638.56, 0.23,-0.52, 9.41, 4478
24.69, 101638.56, 0.19,-0.71, 9.83, 4483
24.69, 101638.56, 0.33,-0.61, 9.60, 4488
24.69, 101639.31, 0.23,-0.57, 9.52, 4493
24.69, 101639.31, 0.31,-0.61, 9.62, 4498
24.69, 101639.31, 0.25,-0.57, 9.58, 4503
24.69, 101639.31, 0.25,-0.63, 9.56, 4508
24.69, 101639.31, 0.23,-0.52, 9.60, 4513
24.69, 101639.31, 0.17,-0.65, 9.64, 4518
24.69, 101639.31, 0.15,-0.56, 9.62, 4523
24.69, 101639.31, 0.19,-0.54, 9.64, 4528
24.69, 101639.31, 0.15,-0.57, 9.64, 4533
24.69, 101639.31, 0.19,-0.57, 9.62, 4538
24.69, 101639.31, 0.19,-0.59, 9.62, 4543
24.69, 101639.31, 0.21,-0.57, 9.64, 4548
24.69, 101639.31, 0.25,-0.56, 9.67, 4553
24.69, 101639.31, 0.25,-0.57, 9.62, 4558
24.69, 101639.31, 0.23,-0.56, 9.67, 4563
24.69, 101640.55, 0.21,-0.57, 9.62, 4568
24.69, 101640.55, 0.19,-0.48, 9.67, 4573
24.69, 101640.55, 0.21,-0.54, 9.56, 4578
24.69, 101640.55, 0.25,-0.56, 9.71, 4583
24.69, 101640.55, 0.27,-0.59, 9.75, 4588
24.69, 101640.55, 0.23,-0.61, 9.54, 4593
24.69, 101640.55, 0.25,-0.61, 9.62, 4598
24.69, 101637.68, 0.25,-0.61, 9.73, 4603
24.69, 101637.68, 0.23,-0.63, 9.69, 4608
24.69, 101637.68, 0.21,-0.59, 9.64, 4613
24.69, 101637.68, 0.25,-0.59, 9.62, 4618
24.69, 101637.68, 0.17,-0.56, 9.60, 4623
24.69, 101637.68, 0.21,-0.61, 9.66, 4628
24.69, 101637.68, 0.19,-0.59, 9.69, 4633
24.69, 101640.05, 0.21,-0.57, 9.75, 4638
24.69, 101640.05, 0.31,-0.56, 9.64, 4643
24.69, 101640.05, 0.21,-0.56, 9.62, 4648
24.69, 101640.05, 0.29,-0.59, 9.66, 4653
24.69, 101640.05, 0.15,-0.61, 9.60, 4658
24.69, 101640.05, 0.23,-0.57, 9.62, 4663
24.69, 101640.05, 0.19,-0.61, 9.67, 4668
24.69, 101639.98, 0.17,-0.61, 9.64, 4673
24.69, 101639.98, 0.25,-0.57, 9.69, 4678
24.69, 101639.98, 0.23,-0.63, 9.67, 4683
24.69, 101639.98, 0.25,-0.59, 9.66, 4688
24.69, 101639.98, 0.27,-0.50, 9.64, 4693
24.69, 101639.98, 0.21,-0.52, 9.60, 4698
24.69, 101639.98, 0.25,-0.54, 9.62, 4703
24.69, 101639.55, 0.27,-0.56, 9.79, 4708
24.69, 101639.55, 0.25,-0.56, 9.66, 4713
24.69, 101639.55, 0.19,-0.54, 9.52, 4718
24.69, 101639.55, 0.19,-0.46, 9.50, 4723
24.69, 101639.55, 0.19,-0.52, 9.69, 4728
24.69, 101639.55, 0.21,-0.63, 9.62, 4733
24.69, 101639.55, 0.23,-0.59, 9.66, 4738
24.69, 101638.02, 0.13,-0.59, 9.66, 4743
24.69, 101638.02, 0.21,-0.63, 9.69, 4748
24.69, 101638.02, 0.25,-0.61, 9.64, 4753
24.69, 101638.02, 0.27,-0.56, 9.62, 4758
24.69, 101638.02, 0.21,-0.61, 9.58, 4763
24.69, 101638.02, 0.25,-0.59, 9.60, 4768
24.69, 101638.02, 0.21,-0.54, 9.62, 4773
24.69, 101638.12, 0.27,-0.54, 9.62, 4778
24.69, 101638.12, 0.21,-0.52, 9.64, 4783
24.69, 101638.12, 0.25,-0.54, 9.62, 4788
24.69, 101638.12, 0.19,-0.54, 9.58, 4793
24.69, 101638.12, 0.19,-0.52, 9.62, 4798
24.69, 101638.12, 0.33,-0.59, 9.66, 4809
24.69, 101639.83, 0.23,-0.52, 9.60, 4813
24.69, 101639.83, 0.21,-0.56, 9.54, 4818
24.69, 101639.83, 0.23,-0.57, 9.48, 4823
24.69, 101639.83, 0.29,-0.48, 9.64, 4828
24.69, 101639.83, 0.23,-0.54, 9.58, 4833
24.69, 101639.83, 0.23,-0.56, 9.58, 4838
24.69, 101639.83, 0.17,-0.52, 9.79, 4843
24.69, 101640.31, 0.19,-0.50, 9.69, 4848
24.69, 101640.31, 0.23,-0.59, 9.64, 4853
24.69, 101640.31, 0.29,-0.61, 9.62, 4858
24.69, 101640.31, 0.31,-0.63, 9.62, 4863
24.69, 101640.31, 0.27,-0.61, 9.54, 4868
24.69, 101640.31, 0.21,-0.61, 9.64, 4873
24.69, 101640.31, 0.19,-0.61, 9.56, 4878
24.69, 101640.31, 0.25,-0.56, 9.67, 4883
24.69, 101641.19, 0.27,-0.54, 9.64, 4888
24.69, 101641.19, 0.23,-0.59, 9.60, 4893
24.69, 101641.19, 0.21,-0.65, 9.67, 4898
24.69, 101641.19, 0.19,-0.57, 9.62, 4903
24.69, 101641.19, 0.19,-0.56, 9.62, 4908
24.69, 101641.19, 0.17,-0.61, 9.64, 4913
24.69, 101641.19, 0.25,-0.59, 9.62, 4918
24.69, 101641.30, 0.27,-0.57, 9.66, 4923
24.69, 101641.30, 0.21,-0.57, 9.66, 4928
24.69, 101641.30, 0.29,-0.56, 9.66, 4933
24.69, 101641.30, 0.27,-0.52, 9.71, 4938
24.69, 101641.30, 0.27,-0.59, 9.54, 4943
24.69, 101641.30, 0.23,-0.50, 9.56, 4948
24.69, 101641.30, 0.21,-0.52, 9.62, 4953
24.69, 101639.72, 0.27,-0.52, 9.39, 4958
24.69, 101639.72, 0.21,-0.59, 9.37, 4963
24.69, 101639.72, 0.25,-0.56, 9.46, 4968
24.69, 101639.72, 0.17,-0.56, 9.54, 4973
24.69, 101639.72, 0.25,-0.56, 9.58, 4978
24.69, 101639.72, 0.25,-0.57, 9.60, 4983
24.69, 101639.72, 0.29,-0.57, 9.62, 4988
24.69, 101639.48, 0.31,-0.61, 9.62, 4993
24.69, 101639.48, 0.25,-0.59, 9.56, 4998
24.69, 101639.48, 0.27,-0.56, 9.64, 5003
24.69, 101639.48, 0.27,-0.57, 9.60, 5008
24.69, 101639.48, 0.23,-0.65, 9.66, 5013
24.69, 101639.48, 0.27,-0.56, 9.64, 5018
24.69, 101639.48, 0.19,-0.59, 9.58, 5023
24.69, 101641.46, 0.25,-0.61, 9.62, 5028
24.69, 101641.46, 0.21,-0.54, 9.64, 5033
24.69, 101641.46, 0.25,-0.57, 9.64, 5038
24.69, 101641.46, 0.27,-0.57, 9.62, 5043
24.69, 101641.46, 0.19,-0.56, 9.64, 5048
24.69, 101641.46, 0.21,-0.63, 9.62, 5053
24.69, 101641.46, 0.25,-0.56, 9.73, 5058
24.69, 101638.02, 0.31,-0.57, 9.73, 5063
24.69, 101638.02, 0.25,-0.63, 9.62, 5068
24.69, 101638.02, 0.29,-0.56, 9.56, 5073
24.69, 101638.02, 0.11,-0.61, 9.79, 5078
24.69, 101638.02, 0.25,-0.63, 9.66, 5083
24.69, 101638.02, 0.27,-0.56, 9.71, 5088
24.69, 101638.02, 0.29,-0.59, 9.67, 5093
24.69, 101637.12, 0.31,-0.57, 9.64, 5098
24.69, 101637.12, 0.21,-0.54, 9.60, 5103
24.69, 101637.12, 0.17,-0.50, 9.67, 5108
24.69, 101637.12, 0.27,-0.57, 9.64, 5113
24.69, 101637.12, 0.27,-0.57, 9.58, 5118
24.69, 101637.12, 0.25,-0.56, 9.67, 5123
24.69, 101637.12, 0.27,-0.57, 9.62, 5128
24.69, 101639.33, 0.17,-0.54, 9.64, 5133
24.69, 101639.33, 0.19,-0.52, 9.62, 5138
24.69, 101639.33, 0.21,-0.48, 9.69, 5143
24.69, 101639.33, 0.23,-0.59, 9.62, 5148
24.69, 101639.33, 0.21,-0.57, 9.66, 5153
24.69, 101639.33, 0.19,-0.54, 9.67, 5158
24.69, 101639.33, 0.19,-0.61, 9.64, 5163
24.69, 101639.33, 0.17,-0.56, 9.64, 5168
24.69, 101639.33, 0.23,-0.56, 9.71, 5173
24.69, 101639.33, 0.27,-0.63, 9.48, 5178
24.69, 101639.33, 0.19,-0.63, 9.56, 5183
24.69, 101639.33, 0.19,-0.48, 9.48, 5188
24.69, 101639.33, 0.25,-0.52, 9.58, 5193
24.69, 101639.33, 0.15,-0.56, 9.67, 5198
24.69, 101641.46, 0.19,-0.57, 9.71, 5203
24.69, 101641.46, 0.25,-0.59, 9.66, 5208
24.69, 101641.46, 0.29,-0.52, 9.67, 5213
24.69, 101641.46, 0.21,-0.59, 9.67, 5218
24.69, 101641.46, 0.13,-0.59, 9.73, 5223
24.69, 101641.46, 0.31,-0.59, 9.60, 5228
24.69, 101641.46, 0.29,-0.59, 9.67, 5233
24.69, 101642.62, 0.23,-0.67, 9.69, 5238
24.69, 101642.62, 0.25,-0.54, 9.69, 5243
24.69, 101642.62, 0.23,-0.59, 9.66, 5248
24.69, 101642.62, 0.19,-0.54, 9.67, 5253
24.69, 101642.62, 0.23,-0.63, 9.64, 5258
24.69, 101642.62, 0.25,-0.54, 9.64, 5263
24.69, 101642.62, 0.19,-0.56, 9.66, 5268
24.69, 101642.62, 0.15,-0.57, 9.67, 5273
24.69, 101640.70, 0.17,-0.57, 9.64, 5278
24.69, 101640.70, 0.19,-0.59, 9.62, 5283
24.69, 101640.70, 0.23,-0.57, 9.66, 5288
24.69, 101640.70, 0.27,-0.61, 9.56, 5293
24.69, 101640.70, 0.25,-0.56, 9.52, 5298
24.69, 101640.70, 0.23,-0.57, 9.79, 5303
24.69, 101640.64, 0.21,-0.67, 9.64, 5311
24.69, 101640.64, 0.25,-0.61, 9.67, 5315
24.69, 101640.64, 0.29,-0.52, 9.64, 5320
24.69, 101640.64, 0.27,-0.59, 9.67, 5325
24.69, 101640.64, 0.23,-0.61, 9.64, 5330
24.69, 101640.64, 0.21,-0.56, 9.71, 5335
24.69, 101640.64, 0.23,-0.57, 9.73, 5340
24.69, 101639.39, 0.25,-0.52, 9.69, 5345
24.69, 101639.39, 0.23,-0.52, 9.60, 5350
24.69, 101639.39, 0.19,-0.50, 9.58, 5355
24.69, 101639.39, 0.19,-0.52, 9.62, 5360
24.69, 101639.39, 0.23,-0.56, 9.58, 5365
24.69, 101639.39, 0.21,-0.56, 9.60, 5370
24.69, 101639.39, 0.19,-0.54, 9.66, 5375
24.69, 101639.81, 0.19,-0.61, 9.64, 5380
24.69, 101639.81, 0.27,-0.61, 9.62, 5385
24.69, 101639.81, 0.25,-0.57, 9.52, 5390
24.69, 101639.81, 0.27,-0.52, 9.66, 5395
24.69, 101639.81, 0.21,-0.56, 9.69, 5400
24.69, 101639.81, 0.25,-0.65, 9.56, 5405
24.69, 101639.81, 0.19,-0.34, 9.64, 5410
24.69, 101639.81, 0.31,-0.52, 9.66, 5415
24.69, 101637.73, 0.33,-0.54, 9.73, 5420
24.69, 101637.73, 0.31,-0.52, 9.69, 5425
24.69, 101637.73, 0.21,-0.56, 9.60, 5430
24.69, 101637.73, 0.27,-0.63, 9.62, 5435
24.69, 101637.73, 0.25,-0.65, 9.66, 5440
24.69, 101637.73, 0.27,-0.59, 9.60, 5445
24.69, 101637.73, 0.25,-0.54, 9.67, 5450
24.69, 101636.84, 0.15,-0.67, 9.69, 5455
24.69, 101636.84, 0.23,-0.61, 9.75, 5460
24.69, 101636.84, 0.25,-0.57, 9.67, 5465
24.69, 101636.84, 0.23,-0.50, 9.62, 5470
24.69, 101636.84, 0.27,-0.61, 9.62, 5475
24.69, 101636.84, 0.27,-0.59, 9.58, 5480
24.69, 101636.84, 0.23,-0.61, 9.56, 5485
24.69, 101638.82, 0.23,-0.61, 9.52, 5490
24.69, 101638.82, 0.23,-0.50, 9.58, 5495
24.69, 101638.82, 0.11,-0.59, 9.58, 5500
24.69, 101638.82, 0.23,-0.56, 9.52, 5505
24.69, 101638.82, 0.21,-0.59, 9.58, 5510
24.69, 101638.82, 0.21,-0.59, 9.60, 5515
24.69, 101638.82, 0.23,-0.59, 9.69, 5520
24.69, 101639.87, 0.23,-0.57, 9.81, 5525
24.69, 101639.87, 0.21,-0.56, 9.62, 5530
24.69, 101639.87, 0.23,-0.59, 9.66, 5535
24.69, 101639.87, 0.21,-0.59, 9.69, 5540
24.69, 101639.87, 0.25,-0.54, 9.64, 5545
24.69, 101639.87, 0.25,-0.56, 9.66, 5550
24.69, 101639.87, 0.23,-0.57, 9.69, 5555
24.69, 101635.05, 0.21,-0.57, 9.75, 5560
24.69, 101635.05, 0.25,-0.59, 9.62, 5565
24.69, 101635.05, 0.19,-0.57, 9.66, 5570
24.69, 101635.05, 0.25,-0.56, 9.67, 5575
24.69, 101635.05, 0.29,-0.56, 9.67, 5580
24.69, 101635.05, 0.25,-0.54, 9.66, 5585
24.69, 101635.05, 0.27,-0.59, 9.67, 5590
24.69, 101636.34, 0.21,-0.65, 9.62, 5595
24.69, 101636.34, 0.19,-0.59, 9.60, 5600
24.69, 101636.34, 0.19,-0.54, 9.64, 5605
24.69, 101636.34, 0.21,-0.57, 9.60, 5610
24.69, 101636.34, 0.23,-0.63, 9.56, 5615
24.69, 101636.34, 0.19,-0.63, 9.43, 5620
24.69, 101636.34, 0.21,-0.57, 9.39, 5625
24.69, 101639.31, 0.19,-0.54, 9.37, 5630
24.69, 101639.31, 0.27,-0.46, 9.67, 5635
24.69, 101639.31, 0.25,-0.52, 9.77, 5640
24.69, 101639.31, 0.19,-0.54, 9.67, 5645
24.69, 101639.31, 0.19,-0.46, 9.56, 5650
24.69, 101639.31, 0.23,-0.46, 9.48, 5655
24.69, 101639.31, 0.25,-0.57, 9.52, 5660
24.69, 101635.77, 0.21,-0.63, 9.62, 5665
24.69, 101635.77, 0.19,-0.63, 9.60, 5670
24.69, 101635.77, 0.15,-0.52, 9.64, 5675
24.69, 101635.77, 0.27,-0.59, 9.58, 5680
24.69, 101635.77, 0.19,-0.59, 9.60, 5685
24.69, 101635.77, 0.21,-0.54, 9.66, 5690
24.69, 101635.77, 0.25,-0.56, 9.64, 5695
24.69, 101638.56, 0.23,-0.52, 9.58, 5700
24.69, 101638.56, 0.25,-0.54, 9.62, 5705
24.69, 101638.56, 0.31,-0.46, 9.60, 5710
24.69, 101638.56, 0.29,-0.57, 9.71, 5715
24.69, 101638.56, 0.29,-0.59, 9.73, 5720
24.69, 101638.56, 0.21,-0.65, 9.60, 5725
24.69, 101638.56, 0.19,-0.59, 9.83, 5730
24.69, 101636.69, 0.19,-0.57, 9.69, 5735
24.69, 101636.69, 0.21,-0.59, 9.67, 5740
24.69, 101636.69, 0.17,-0.56, 9.46, 5745
24.69, 101636.69, 0.25,-0.57, 9.50, 5750
24.69, 101636.69, 0.27,-0.46, 9.54, 5755
24.69, 101636.69, 0.27,-0.57, 9.56, 5760
24.69, 101636.69, 0.17,-0.56, 9.62, 5765
24.69, 101636.69, 0.23,-0.57, 9.58, 5770
24.69, 101638.41, 0.27,-0.57, 9.66, 5775
24.69, 101638.41, 0.23,-0.54, 9.56, 5780
24.69, 101638.41, 0.21,-0.56, 9.62, 5785
24.69, 101638.41, 0.23,-0.56, 9.60, 5790
24.69, 101638.41, 0.25,-0.54, 9.66, 5795
24.69, 101638.41, 0.23,-0.61, 9.64, 5800
24.69, 101638.41, 0.19,-0.59, 9.64, 5805
24.69, 101641.03, 0.27,-0.57, 9.58, 5813
24.69, 101641.03, 0.23,-0.59, 9.56, 5817
24.69, 101641.03, 0.27,-0.65, 9.50, 5822
24.69, 101641.03, 0.29,-0.63, 9.60, 5827
24.69, 101641.03, 0.29,-0.59, 9.58, 5832
24.69, 101641.03, 0.29,-0.57, 9.62, 5837
24.69, 101638.98, 0.33,-0.52, 9.60, 5842
24.69, 101638.98, 0.25,-0.52, 9.62, 5847
24.69, 101638.98, 0.29,-0.59, 9.62, 5852
24.69, 101638.98, 0.25,-0.54, 9.67, 5857
24.69, 101638.98, 0.23,-0.52, 9.62, 5862
24.69, 101638.98, 0.29,-0.52, 9.66, 5867
24.69, 101638.98, 0.27,-0.52, 9.71, 5872
24.69, 101639.27, 0.21,-0.59, 9.66, 5877
24.69, 101639.27, 0.25,-0.56, 9.58, 5882
24.69, 101639.27, 0.31,-0.61, 9.64, 5887
24.69, 101639.27, 0.25,-0.57, 9.67, 5892
24.69, 101639.27, 0.21,-0.54, 9.60, 5897
24.69, 101639.27, 0.21,-0.52, 9.67, 5902
24.69, 101639.27, 0.27,-0.54, 9.67, 5907
24.69, 101639.27, 0.23,-0.54, 9.50, 5912
24.69, 101637.83, 0.17,-0.56, 9.56, 5917
24.69, 101637.83, 0.21,-0.59, 9.58, 5922
24.69, 101637.83, 0.21,-0.54, 9.71, 5927
24.69, 101637.83, 0.23,-0.61, 9.60, 5932
24.69, 101637.83, 0.27,-0.61, 9.62, 5937
24.69, 101637.83, 0.34,-0.61, 9.81, 5942
24.69, 101637.83, 0.21,-0.61, 9.71, 5947
24.69, 101636.84, 0.21,-0.63, 9.67, 5952
24.69, 101636.84, 0.23,-0.63, 9.67, 5957
24.69, 101636.84, 0.21,-0.59, 9.58, 5962
24.69, 101636.84, 0.21,-0.57, 9.66, 5967
24.69, 101636.84, 0.21,-0.56, 9.66, 5972
24.69, 101636.84, 0.17,-0.50, 9.67, 5977
24.69, 101636.84, 0.23,-0.50, 9.64, 5982
24.69, 101637.50, 0.15,-0.57, 9.60, 5987
24.69, 101637.50, 0.17,-0.50, 9.64, 5992
24.69, 101637.50, 0.25,-0.59, 9.58, 5997
24.69, 101637.50, 0.19,-0.57, 9.62, 6002
24.69, 101637.50, 0.23,-0.54, 9.66, 6007
24.69, 101637.50, 0.23,-0.56, 9.64, 6012
24.69, 101637.50, 0.25,-0.57, 9.66, 6017
24.69, 101638.98, 0.19,-0.56, 9.67, 6022
24.69, 101638.98, 0.29,-0.61, 9.73, 6027
24.69, 101638.98, 0.29,-0.57, 9.73, 6032
24.69, 101638.98, 0.19,-0.61, 9.60, 6037
24.69, 101638.98, 0.17,-0.56, 9.58, 6042
24.69, 101638.98, 0.17,-0.61, 9.79, 6047
24.69, 101638.98, 0.31,-0.63, 9.41, 6052
24.69, 101638.55, 0.23,-0.54, 9.77, 6057
24.69, 101638.55, 0.25,-0.52, 9.60, 6062
24.69, 101638.55, 0.25,-0.54, 9.60, 6067
24.69, 101638.55, 0.21,-0.54, 9.62, 6072
24.69, 101638.55, 0.29,-0.52, 9.62, 6077
24.69, 101638.55, 0.23,-0.50, 9.52, 6082
24.69, 101638.55, 0.19,-0.50, 9.60, 6087
24.69, 101636.19, 0.17,-0.52, 9.62, 6092
24.69, 101636.19, 0.17,-0.59, 9.64, 6097
24.69, 101636.19, 0.19,-0.57, 9.58, 6102
24.69, 101636.19, 0.29,-0.59, 9.58, 6107
24.69, 101636.19, 0.23,-0.59, 9.60, 6112
24.69, 101636.19, 0.23,-0.61, 9.58, 6117
24.69, 101636.19, 0.21,-0.57, 9.64, 6122
24.69, 101636.84, 0.25,-0.57, 9.64, 6127
24.69, 101636.84, 0.23,-0.59, 9.62, 6132
24.69, 101636.84, 0.25,-0.56, 9.62, 6137
24.69, 101636.84, 0.21,-0.59, 9.60, 6142
24.69, 101636.84, 0.21,-0.57, 9.66, 6147
24.69, 101636.84, 0.29,-0.61, 9.71, 6152
24.69, 101636.84, 0.27,-0.54, 9.60, 6157
24.69, 101635.27, 0.27,-0.61, 9.60, 6162
24.69, 101635.27, 0.15,-0.59, 9.46, 6167
24.69, 101635.27, 0.13,-0.59, 9.58, 6172
24.69, 101635.27, 0.17,-0.52, 9.71, 6177
24.69, 101635.27, 0.27,-0.52, 9.67, 6182
24.69, 101635.27, 0.17,-0.57, 9.56, 6187
24.69, 101635.27, 0.19,-0.56, 9.66, 6192
24.69, 101636.67, 0.21,-0.59, 9.71, 6197
24.69, 101636.67, 0.21,-0.54, 9.67, 6202
24.69, 101636.67, 0.25,-0.61, 9.62, 6207
24.69, 101636.67, 0.19,-0.52, 9.64, 6212
24.69, 101636.67, 0.19,-0.59, 9.64, 6217
24.69, 101636.67, 0.17,-0.56, 9.62, 6222
24.69, 101636.67, 0.23,-0.56, 9.64, 6227
24.69, 101637.50, 0.17,-0.54, 9.62, 6232
24.69, 101637.50, 0.21,-0.61, 9.58, 6237
24.69, 101637.50, 0.23,-0.63, 9.66, 6242
24.69, 101637.50, 0.21,-0.59, 9.67, 6247
24.69, 101637.50, 0.21,-0.56, 9.64, 6252
24.69, 101637.50, 0.23,-0.56, 9.66, 6257
24.69, 101637.50, 0.23,-0.54, 9.69, 6262
24.69, 101635.03, 0.19,-0.52, 9.60, 6267
24.69, 101635.03, 0.25,-0.57, 9.69, 6272
24.69, 101635.03, 0.21,-0.59, 9.50, 6277
24.69, 101635.03, 0.19,-0.59, 9.52, 6282
24.69, 101635.03, 0.21,-0.67, 9.67, 6287
24.69, 101635.03, 0.15,-0.65, 9.67, 6292
24.69, 101635.03, 0.29,-0.52, 9.77, 6297
24.69, 101635.03, 0.25,-0.61, 9.66, 6302
24.69, 101636.67, 0.27,-0.61, 9.69, 6307
24.69, 101636.67, 0.23,-0.63, 9.58, 6315
24.69, 101636.67, 0.25,-0.54, 9.58, 6319
24.69, 101636.67, 0.23,-0.54, 9.66, 6324
24.69, 101636.67, 0.23,-0.57, 9.69, 6329
24.69, 101636.67, 0.27,-0.57, 9.64, 6334
24.69, 101635.52, 0.21,-0.56, 9.66, 6339
24.69, 101635.52, 0.31,-0.59, 9.62, 6344
24.69, 101635.52, 0.23,-0.59, 9.71, 6349
24.69, 101635.52, 0.17,-0.63, 9.60, 6354
24.69, 101635.52, 0.21,-0.67, 9.56, 6359
24.69, 101635.52, 0.29,-0.65, 9.71, 6364
24.69, 101635.52, 0.27,-0.59, 9.75, 6369
24.69, 101636.95, 0.29,-0.57, 9.54, 6374
24.69, 101636.95, 0.25,-0.69, 9.64, 6379
24.69, 101636.95, 0.17,-0.63, 9.77, 6384
24.69, 101636.95, 0.23,-0.61, 9.50, 6389
24.69, 101636.95, 0.25,-0.54, 9.71, 6394
24.69, 101636.95, 0.19,-0.59, 9.64, 6399
24.69, 101636.95, 0.29,-0.63, 9.56, 6404
24.69, 101635.52, 0.17,-0.63, 9.54, 6409
24.69, 101635.52, 0.15,-0.67, 9.73, 6414
24.69, 101635.52, 0.21,-0.61, 9.69, 6419
24.69, 101635.52, 0.27,-0.61, 9.66, 6424
24.69, 101635.52, 0.21,-0.57, 9.58, 6429
24.69, 101635.52, 0.29,-0.61, 9.60, 6434
24.69, 101635.52, 0.21,-0.56, 9.64, 6439
24.69, 101635.52, 0.17,-0.50, 9.62, 6444
24.69, 101638.11, 0.17,-0.56, 9.64, 6449
24.69, 101638.11, 0.21,-0.57, 9.66, 6454
24.69, 101638.11, 0.17,-0.59, 9.64, 6459
24.69, 101638.11, 0.17,-0.56, 9.66, 6464
24.69, 101638.11, 0.25,-0.52, 9.54, 6469
24.69, 101638.11, 0.29,-0.59, 9.64, 6474
24.69, 101638.11, 0.27,-0.54, 9.56, 6479
24.69, 101637.83, 0.29,-0.54, 9.69, 6484
24.69, 101637.83, 0.27,-0.57, 9.71, 6489
24.69, 101637.83, 0.17,-0.59, 9.58, 6494
24.69, 101637.83, 0.23,-0.57, 9.79, 6499
24.69, 101637.83, 0.19,-0.59, 9.73, 6504
24.69, 101637.83, 0.21,-0.61, 9.64, 6509
24.69, 101637.83, 0.19,-0.59, 9.60, 6514
24.69, 101637.23, 0.11,-0.54, 9.60, 6519
24.69, 101637.23, 0.19,-0.56, 9.67, 6524
24.69, 101637.23, 0.19,-0.61, 9.66, 6529
24.69, 101637.23, 0.13,-0.59, 9.67, 6534
24.69, 101637.23, 0.19,-0.56, 9.62, 6539
24.69, 101637.23, 0.19,-0.57, 9.58, 6544
24.69, 101637.23, 0.25,-0.59, 9.64, 6549
24.69, 101635.52, 0.23,-0.57, 9.67, 6554
24.69, 101635.52, 0.15,-0.56, 9.62, 6559
24.69, 101635.52, 0.21,-0.57, 9.62, 6564
24.69, 101635.52, 0.15,-0.57, 9.62, 6569
24.69, 101635.52, 0.17,-0.56, 9.64, 6574
24.69, 101635.52, 0.25,-0.52, 9.64, 6579
24.69, 101635.52, 0.19,-0.57, 9.56, 6584
24.69, 101634.38, 0.17,-0.67, 9.73, 6589
24.69, 101634.38, 0.19,-0.56, 9.37, 6594
24.69, 101634.38, 0.23,-0.71, 9.60, 6599
24.69, 101634.38, 0.23,-0.65, 9.52, 6604
24.69, 101634.38, 0.25,-0.61, 9.69, 6609
24.69, 101634.38, 0.23,-0.56, 9.71, 6614
24.69, 101634.38, 0.29,-0.52, 9.67, 6619
24.69, 101634.70, 0.23,-0.54, 9.69, 6624
24.69, 101634.70, 0.19,-0.57, 9.64, 6629
24.69, 101634.70, 0.27,-0.59, 9.67, 6634
24.69, 101634.70, 0.21,-0.59, 9.69, 6639
24.69, 101634.70, 0.19,-0.57, 9.66, 6644
24.69, 101634.70, 0.23,-0.61, 9.60, 6649
24.69, 101634.70, 0.27,-0.59, 9.66, 6654
24.69, 101635.85, 0.21,-0.61, 9.66, 6659
24.69, 101635.85, 0.25,-0.56, 9.56, 6664
24.69, 101635.85, 0.27,-0.54, 9.60, 6669
24.69, 101635.85, 0.29,-0.57, 9.64, 6674
24.69, 101635.85, 0.21,-0.54, 9.62, 6679
24.69, 101635.85, 0.17,-0.59, 9.62, 6684
24.69, 101635.85, 0.19,-0.61, 9.56, 6689
24.69, 101634.92, 0.15,-0.61, 9.48, 6694
24.69, 101634.92, 0.17,-0.59, 9.66, 6699
24.69, 101634.92, 0.13,-0.50, 9.54, 6704
24.69, 101634.92, 0.27,-0.59, 9.66, 6709
24.69, 101634.92, 0.23,-0.57, 9.45, 6714
24.69, 101634.92, 0.21,-0.56, 9.66, 6719
24.69, 101634.92, 0.23,-0.54, 9.60, 6724
24.69, 101636.19, 0.25,-0.56, 9.60, 6729
24.69, 101636.19, 0.27,-0.61, 9.58, 6734
24.69, 101636.19, 0.27,-0.57, 9.67, 6739
24.69, 101636.19, 0.19,-0.57, 9.69, 6744
24.69, 101636.19, 0.25,-0.57, 9.67, 6749
24.69, 101636.19, 0.17,-0.56, 9.66, 6754
24.69, 101636.19, 0.19,-0.48, 9.62, 6759
24.69, 101635.52, 0.19,-0.57, 9.66, 6764
24.69, 101635.52, 0.23,-0.56, 9.64, 6769
24.69, 101635.52, 0.13,-0.63, 9.66, 6774
24.69, 101635.52, 0.13,-0.67, 9.67, 6779
24.69, 101635.52, 0.23,-0.57, 9.60, 6784
24.69, 101635.52, 0.27,-0.56, 9.62, 6789
24.69, 101635.52, 0.19,-0.57, 9.67, 6794
24.69, 101635.52, 0.25,-0.61, 9.52, 6799
24.69, 101635.52, 0.23,-0.52, 9.64, 6804
24.69, 101635.52, 0.13,-0.67, 9.67, 6809
24.69, 101635.52, 0.27,-0.54, 9.58, 6821
24.69, 101635.52, 0.27,-0.50, 9.60, 6825
24.69, 101635.52, 0.23,-0.54, 9.62, 6830
24.69, 101636.02, 0.25,-0.52, 9.64, 6835
24.69, 101636.02, 0.31,-0.52, 9.62, 6840
24.69, 101636.02, 0.21,-0.57, 9.69, 6845
24.69, 101636.02, 0.21,-0.57, 9.64, 6850
24.69, 101636.02, 0.17,-0.50, 9.64, 6855
24.69, 101636.02, 0.25,-0.54, 9.50, 6860
24.69, 101636.02, 0.17,-0.59, 9.77, 6865
24.69, 101636.02, 0.25,-0.61, 9.66, 6870
24.69, 101636.19, 0.23,-0.63, 9.50, 6875
24.69, 101636.19, 0.19,-0.56, 9.73, 6880
24.69, 101636.19, 0.19,-0.54, 9.71, 6885
24.69, 101636.19, 0.21,-0.56, 9.66, 6890
24.69, 101636.19, 0.21,-0.56, 9.64, 6895
24.69, 101636.19, 0.17,-0.54, 9.62, 6900
24.69, 101636.19, 0.17,-0.61, 9.58, 6905
24.69, 101638.88, 0.27,-0.63, 9.60, 6910
24.69, 101638.88, 0.19,-0.61, 9.56, 6915
24.69, 101638.88, 0.15,-0.59, 9.62, 6920
24.69, 101638.88, 0.19,-0.65, 9.62, 6925
24.69, 101638.88, 0.25,-0.63, 9.66, 6930
24.69, 101638.88, 0.25,-0.63, 9.67, 6935
24.69, 101638.88, 0.27,-0.65, 9.66, 6940
24.69, 101634.70, 0.21,-0.59, 9.66, 6945
24.69, 101634.70, 0.17,-0.57, 9.62, 6950
24.69, 101634.70, 0.25,-0.63, 9.58, 6955
24.69, 101634.70, 0.27,-0.61, 9.67, 6960
24.69, 101634.70, 0.17,-0.63, 9.58, 6965
24.69, 101634.70, 0.25,-0.63, 9.56, 6970
24.69, 101634.70, 0.19,-0.59, 9.56, 6975
24.69, 101636.08, 0.23,-0.50, 9.64, 6980
24.69, 101636.08, 0.23,-0.44, 9.64, 6985
24.69, 101636.08, 0.33,-0.54, 9.58, 6990
24.69, 101636.08, 0.25,-0.57, 9.83, 6995
24.69, 101636.08, 0.19,-0.56, 9.73, 7000
24.69, 101636.08, 0.27,-0.52, 9.67, 7005
24.69, 101636.08, 0.21,-0.52, 9.60, 7010
24.69, 101636.85, 0.25,-0.59, 9.58, 7015
24.69, 101636.85, 0.19,-0.67, 9.69, 7020
24.69, 101636.85, 0.19,-0.63, 9.69, 7025
24.69, 101636.85, 0.23,-0.63, 9.64, 7030
24.69, 101636.85, 0.27,-0.63, 9.67, 7035
24.69, 101636.85, 0.25,-0.56, 9.64, 7040
24.69, 101636.85, 0.21,-0.59, 9.69, 7045
24.69, 101636.02, 0.25,-0.56, 9.60, 7050
24.69, 101636.02, 0.23,-0.59, 9.66, 7055
24.69, 101636.02, 0.27,-0.54, 9.62, 7060
24.69, 101636.02, 0.21,-0.56, 9.66, 7065
24.69, 101636.02, 0.21,-0.56, 9.66, 7070
24.69, 101636.02, 0.17,-0.56, 9.62, 7075
24.69, 101636.02, 0.21,-0.54, 9.66, 7080
24.69, 101634.86, 0.23,-0.71, 9.64, 7085
24.69, 101634.86, 0.29,-0.65, 9.62, 7090
24.69, 101634.86, 0.27,-0.61, 9.48, 7095
24.69, 101634.86, 0.27,-0.52, 9.60, 7100
24.69, 101634.86, 0.23,-0.56, 9.67, 7105
24.69, 101634.86, 0.19,-0.57, 9.64, 7110
24.69, 101634.86, 0.27,-0.65, 9.64, 7115
24.69, 101637.56, 0.15,-0.67, 9.64, 7120
24.69, 101637.56, 0.17,-0.63, 9.58, 7125
24.69, 101637.56, 0.19,-0.63, 9.62, 7130
24.69, 101637.56, 0.34,-0.59, 9.69, 7135
24.69, 101637.56, 0.25,-0.54, 9.66, 7140
24.69, 101637.56, 0.33,-0.56, 9.58, 7145
24.69, 101637.56, 0.27,-0.50, 9.58, 7150
24.69, 101636.80, 0.29,-0.61, 9.62, 7155
24.69, 101636.80, 0.23,-0.57, 9.66, 7160
24.69, 101636.80, 0.17,-0.59, 9.62, 7165
24.69, 101636.80, 0.17,-0.65, 9.62, 7170
24.69, 101636.80, 0.27,-0.57, 9.60, 7175
24.69, 101636.80, 0.17,-0.57, 9.60, 7180
24.69, 101636.80, 0.17,-0.57, 9.62, 7185
24.69, 101638.11, 0.19,-0.57, 9.69, 7190
24.69, 101638.11, 0.19,-0.61, 9.62, 7195
24.69, 101638.11, 0.25,-0.61, 9.56, 7200
24.69, 101638.11, 0.23,-0.61, 9.56, 7205
24.69, 101638.11, 0.29,-0.54, 9.71, 7210
24.69, 101638.11, 0.23,-0.46, 9.58, 7215
24.69, 101638.11, 0.34,-0.50, 9.73, 7220
24.69, 101634.92, 0.33,-0.56, 9.64, 7225
24.69, 101634.92, 0.31,-0.65, 9.66, 7230
24.69, 101634.92, 0.29,-0.56, 9.60, 7235
24.69, 101634.92, 0.25,-0.56, 9.64, 7240
24.69, 101634.92, 0.27,-0.52, 9.62, 7245
24.69, 101634.92, 0.29,-0.56, 9.69, 7250
24.69, 101634.92, 0.21,-0.59, 9.60, 7255
24.69, 101634.92, 0.25,-0.57, 9.66, 7260
24.69, 101634.04, 0.25,-0.50, 9.66, 7265
24.69, 101634.04, 0.19,-0.57, 9.62, 7270
24.69, 101634.04, 0.27,-0.54, 9.67, 7275
24.69, 101634.04, 0.19,-0.52, 9.71, 7280
24.69, 101634.04, 0.25,-0.57, 9.67, 7285
24.69, 101634.04, 0.23,-0.57, 9.64, 7290
24.69, 101634.04, 0.23,-0.59, 9.62, 7295
24.69, 101635.03, 0.29,-0.61, 9.62, 7300
24.69, 101635.03, 0.27,-0.59, 9.64, 7305
24.69, 101635.03, 0.27,-0.54, 9.64, 7310
24.69, 101635.03, 0.21,-0.61, 9.56, 7315
24.69, 101635.03, 0.29,-0.57, 9.66, 7322
24.69, 101635.03, 0.33,-0.48, 9.60, 7327
24.69, 101635.80, 0.21,-0.57, 9.58, 7332
24.69, 101635.80, 0.21,-0.57, 9.56, 7337
24.69, 101635.80, 0.15,-0.56, 9.66, 7342
24.69, 101635.80, 0.17,-0.63, 9.64, 7347
24.69, 101635.80, 0.19,-0.57, 9.71, 7352
24.69, 101635.80, 0.19,-0.57, 9.58, 7357
24.69, 101635.80, 0.21,-0.61, 9.60, 7362
24.69, 101637.34, 0.23,-0.56, 9.64, 7367
24.69, 101637.34, 0.29,-0.56, 9.64, 7372
24.69, 101637.34, 0.23,-0.57, 9.60, 7377
24.69, 101637.34, 0.17,-0.52, 9.66, 7382
24.69, 101637.34, 0.19,-0.56, 9.69, 7387
24.69, 101637.34, 0.25,-0.56, 9.58, 7392
24.69, 101637.34, 0.25,-0.57, 9.56, 7397
24.69, 101637.34, 0.25,-0.56, 9.62, 7402
24.69, 101634.92, 0.15,-0.57, 9.69, 7407
24.69, 101634.92, 0.17,-0.52, 9.56, 7412
24.69, 101634.92, 0.19,-0.63, 9.66, 7417
24.69, 101634.92, 0.27,-0.61, 9.62, 7422
24.69, 101634.92, 0.21,-0.61, 9.60, 7427
24.69, 101634.92, 0.25,-0.59, 9.79, 7432
24.69, 101634.92, 0.15,-0.56, 9.73, 7437
24.69, 101635.09, 0.31,-0.59, 9.58, 7442
24.69, 101635.09, 0.23,-0.54, 9.66, 7447
24.69, 101635.09, 0.23,-0.59, 9.66, 7452
24.69, 101635.09, 0.25,-0.46, 9.54, 7457
24.69, 101635.09, 0.27,-0.52, 9.54, 7462
24.69, 101635.09, 0.33,-0.59, 9.54, 7467
24.69, 101635.09, 0.25,-0.44, 9.58, 7472
24.69, 101631.89, 0.27,-0.54, 9.71, 7477
24.69, 101631.89, 0.29,-0.63, 9.75, 7482
24.69, 101631.89, 0.23,-0.61, 9.69, 7487
24.69, 101631.89, 0.17,-0.59, 9.67, 7492
24.69, 101631.89, 0.19,-0.56, 9.67, 7497
24.69, 101631.89, 0.29,-0.63, 9.71, 7502
24.69, 101631.89, 0.19,-0.57, 9.67, 7507
24.69, 101637.12, 0.11,-0.44, 9.56, 7512
24.69, 101637.12, 0.10,-0.54, 9.54, 7517
24.69, 101637.12, 0.11,-0.57, 9.60, 7522
24.69, 101637.12, 0.13,-0.71, 9.67, 7527
24.69, 101637.12, 0.15,-0.69, 9.56, 7532
24.69, 101637.12, 0.10,-0.61, 9.48, 7537
24.69, 101637.12, 0.21,-0.65, 9.62, 7542
24.69, 101633.27, 0.25,-0.63, 9.67, 7547
24.69, 101633.27, 0.19,-0.57, 9.73, 7552
24.69, 101633.27, 0.25,-0.59, 9.67, 7557
24.69, 101633.27, 0.31,-0.57, 9.54, 7562
24.69, 101633.27, 0.25,-0.54, 9.56, 7567
24.69, 101633.27, 0.29,-0.52, 9.62, 7572
24.69, 101633.27, 0.25,-0.52, 9.62, 7577
24.69, 101634.92, 0.27,-0.59, 9.66, 7582
24.69, 101634.92, 0.27,-0.54, 9.67, 7587
24.69, 101634.92, 0.29,-0.52, 9.73, 7592
24.69, 101634.92, 0.36,-0.50, 9.66, 7597
24.69, 101634.92, 0.34,-0.56, 9.71, 7602
24.69, 101634.92, 0.31,-0.57, 9.66, 7607
24.69, 101634.92, 0.25,-0.54, 9.58, 7612
24.69, 101635.09, 0.27,-0.56, 9.56, 7617
24.69, 101635.09, 0.25,-0.56, 9.71, 7622
24.69, 101635.09, 0.29,-0.46, 9.58, 7627
24.69, 101635.09, 0.29,-0.52, 9.69, 7632
24.69, 101635.09, 0.25,-0.59, 9.77, 7637
24.69, 101635.09, 0.15,-0.59, 9.73, 7642
24.69, 101635.09, 0.25,-0.59, 9.50, 7647
24.69, 101633.88, 0.23,-0.57, 9.58, 7652
24.69, 101633.88, 0.23,-0.59, 9.60, 7657
24.69, 101633.88, 0.19,-0.57, 9.58, 7662
24.69, 101633.88, 0.25,-0.54, 9.62, 7667
24.69, 101633.88, 0.23,-0.63, 9.54, 7672
24.69, 101633.88, 0.21,-0.61, 9.58, 7677
24.69, 101633.88, 0.13,-0.61, 9.60, 7682
24.69, 101635.80, 0.17,-0.63, 9.69, 7687
24.69, 101635.80, 0.17,-0.56, 9.71, 7692
24.69, 101635.80, 0.13,-0.63, 9.67, 7697
24.69, 101635.80, 0.21,-0.63, 9.66, 7702
24.69, 101635.80, 0.21,-0.57, 9.60, 7707
24.69, 101635.80, 0.21,-0.61, 9.66, 7712
24.69, 101635.80, 0.19,-0.56, 9.62, 7717
24.69, 101635.25, 0.19,-0.54, 9.60, 7722
24.69, 101635.25, 0.15,-0.56, 9.54, 7727
24.69, 101635.25, 0.15,-0.57, 9.60, 7732
24.69, 101635.25, 0.17,-0.61, 9.54, 7737
24.69, 101635.25, 0.17,-0.65, 9.64, 7742
24.69, 101635.25, 0.25,-0.59, 9.83, 7747
24.69, 101635.25, 0.27,-0.63, 9.73, 7752
24.69, 101635.25, 0.27,-0.59, 9.69, 7757
24.69, 101634.70, 0.27,-0.59, 9.60, 7762
24.69, 101634.70, 0.21,-0.65, 9.45, 7767
24.69, 101634.70, 0.33,-0.56, 9.52, 7772
24.69, 101634.70, 0.34,-0.54, 9.60, 7777
24.69, 101634.70, 0.29,-0.65, 9.54, 7782
24.69, 101634.70, 0.29,-0.56, 9.54, 7787
24.69, 101634.70, 0.27,-0.54, 9.54, 7792
24.69, 101634.98, 0.25,-0.50, 9.62, 7797
24.69, 101634.98, 0.29,-0.59, 9.69, 7802
24.69, 101634.98, 0.25,-0.59, 9.69, 7807
24.69, 101634.98, 0.23,-0.63, 9.66, 7812
24.69, 101634.98, 0.27,-0.56, 9.64, 7817
24.69, 101634.98, 0.19,-0.65, 9.60, 7827
24.69, 101637.45, 0.21,-0.61, 9.62, 7831
24.69, 101637.45, 0.29,-0.61, 9.48, 7836
24.69, 101637.45, 0.15,-0.56, 9.58, 7841
24.69, 101637.45, 0.17,-0.59, 9.58, 7846
24.69, 101637.45, 0.15,-0.54, 9.71, 7851
24.69, 101637.45, 0.21,-0.59, 9.77, 7856
24.69, 101637.45, 0.19,-0.59, 9.69, 7861
24.69, 101636.41, 0.17,-0.65, 9.64, 7866
24.69, 101636.41, 0.23,-0.69, 9.66, 7871
24.69, 101636.41, 0.21,-0.57, 9.60, 7876
24.69, 101636.41, 0.17,-0.57, 9.58, 7881
24.69, 101636.41, 0.17,-0.59, 9.58, 7886
24.69, 101636.41, 0.19,-0.57, 9.64, 7891
24.69, 101636.41, 0.27,-0.61, 9.62, 7896
24.69, 101634.04, 0.23,-0.57, 9.66, 7901
24.69, 101634.04, 0.23,-0.56, 9.71, 7906
24.69, 101634.04, 0.31,-0.61, 9.85, 7911
24.69, 101634.04, 0.29,-0.57, 9.64, 7916
24.69, 101634.04, 0.23,-0.57, 9.54, 7921
24.69, 101634.04, 0.25,-0.61, 9.69, 7926
24.69, 101634.04, 0.17,-0.54, 9.62, 7931
24.69, 101635.59, 0.21,-0.52, 9.56, 7936
24.69, 101635.59, 0.27,-0.52, 9.71, 7941
24.69, 101635.59, 0.29,-0.54, 9.66, 7946
24.69, 101635.59, 0.23,-0.46, 9.58, 7951
24.69, 101635.59, 0.15,-0.54, 9.62, 7956
24.69, 101635.59, 0.21,-0.54, 9.64, 7961
24.69, 101635.59, 0.21,-0.59, 9.64, 7966
24.69, 101637.01, 0.23,-0.59, 9.69, 7971
24.69, 101637.01, 0.13,-0.63, 9.64, 7976
24.69, 101637.01, 0.15,-0.65, 9.62, 7981
24.69, 101637.01, 0.15,-0.67, 9.62, 7986
24.69, 101637.01, 0.13,-0.59, 9.60, 7991
24.69, 101637.01, 0.13,-0.59, 9.56, 7996
24.69, 101637.01, 0.15,-0.57, 9.67, 8001
24.69, 101635.43, 0.19,-0.59, 9.62, 8006
24.69, 101635.43, 0.15,-0.57, 9.62, 8011
24.69, 101635.43, 0.21,-0.56, 9.67, 8016
24.69, 101635.43, 0.21,-0.59, 9.67, 8021
24.69, 101635.43, 0.27,-0.57, 9.58, 8026
24.69, 101635.43, 0.27,-0.61, 9.67, 8031
24.69, 101635.43, 0.29,-0.54, 9.60, 8036
24.69, 101635.77, 0.19,-0.56, 9.69, 8041
24.69, 101637.56, 0.31,-0.56, 9.46, 8046
24.69, 101637.56, 0.27,-0.54, 9.60, 8051
24.69, 101637.56, 0.19,-0.54, 9.60, 8056
24.69, 101637.56, 0.25,-0.50, 9.56, 8061
24.69, 101637.56, 0.34,-0.48, 9.71, 8066
24.69, 101637.56, 0.40,-0.57, 9.71, 8071
24.69, 101637.56, 0.29,-0.50, 9.69, 8076
24.69, 101636.91, 0.27,-0.50, 9.62, 8081
24.69, 101636.91, 0.23,-0.57, 9.58, 8086
24.69, 101636.91, 0.31,-0.56, 9.62, 8091
24.69, 101636.91, 0.33,-0.54, 9.60, 8096
24.69, 101636.91, 0.17,-0.48, 9.48, 8101
24.69, 101636.91, 0.21,-0.50, 9.52, 8106
24.69, 101636.91, 0.25,-0.59, 9.67, 8111
24.69, 101636.46, 0.33,-0.63, 9.73, 8116
24.69, 101636.46, 0.23,-0.61, 9.71, 8121
24.69, 101636.46, 0.17,-0.57, 9.62, 8126
24.69, 101636.46, 0.23,-0.63, 9.56, 8131
24.69, 101636.46, 0.25,-0.56, 9.81, 8136
24.69, 101636.46, 0.19,-0.63, 9.54, 8141
24.69, 101636.46, 0.17,-0.54, 9.48, 8146
24.69, 101638.28, 0.17,-0.67, 9.58, 8151
24.69, 101638.28, 0.21,-0.61, 9.62, 8156
24.69, 101638.28, 0.27,-0.63, 9.58, 8161
24.69, 101638.28, 0.21,-0.57, 9.64, 8166
24.69, 101638.28, 0.21,-0.57, 9.77, 8171
24.69, 101638.28, 0.21,-0.61, 9.77, 8176
24.69, 101638.28, 0.21,-0.61, 9.73, 8181
24.69, 101637.40, 0.21,-0.57, 9.64, 8186
24.69, 101637.40, 0.21,-0.56, 9.67, 8191
24.69, 101637.40, 0.21,-0.54, 9.62, 8196
24.69, 101637.40, 0.17,-0.48, 9.66, 8201
24.69, 101637.40, 0.13,-0.57, 9.64, 8206
24.69, 101637.40, 0.13,-0.65, 9.54, 8211
24.69, 101637.40, 0.15,-0.59, 9.60, 8216
24.69, 101636.24, 0.19,-0.59, 9.69, 8221
24.69, 101636.24, 0.19,-0.57, 9.71, 8226
24.69, 101636.24, 0.25,-0.59, 9.67, 8231
24.69, 101636.24, 0.19,-0.57, 9.60, 8236
24.69, 101636.24, 0.23,-0.63, 9.62, 8241
24.69, 101636.24, 0.17,-0.61, 9.60, 8246
24.69, 101636.24, 0.15,-0.50, 9.58, 8251
24.69, 101634.76, 0.31,-0.52, 9.67, 8256
24.69, 101634.76, 0.21,-0.56, 9.46, 8261
24.69, 101634.76, 0.23,-0.56, 9.64, 8266
24.69, 101634.76, 0.27,-0.46, 9.77, 8271
24.69, 101634.76, 0.31,-0.61, 9.66, 8276
24.69, 101634.76, 0.25,-0.65, 9.37, 8281
24.69, 101634.76, 0.21,-0.57, 9.77, 8286
24.69, 101637.34, 0.33,-0.61, 9.66, 8291
24.69, 101637.34, 0.33,-0.57, 9.69, 8296
24.69, 101637.34, 0.34,-0.59, 9.62, 8301
24.69, 101637.34, 0.34,-0.59, 9.58, 8306
24.69, 101637.34, 0.38,-0.46, 9.62, 8311
24.69, 101637.34, 0.25,-0.54, 9.64, 8316
24.69, 101637.34, 0.36,-0.50, 9.66, 8321
24.69, 101639.10, 0.34,-0.59, 9.58, 8329
24.69, 101639.10, 0.33,-0.65, 9.54, 8333
24.69, 101639.10, 0.23,-0.65, 9.64, 8338
24.69, 101639.10, 0.25,-0.59, 9.62, 8343
24.69, 101639.10, 0.21,-0.57, 9.69, 8348
24.69, 101639.10, 0.11,-0.50, 9.60, 8353
24.69, 101639.10, 0.17,-0.54, 9.64, 8358
24.69, 101637.56, 0.25,-0.52, 9.64, 8363
24.69, 101637.56, 0.21,-0.57, 9.64, 8368
24.69, 101637.56, 0.17,-0.56, 9.54, 8373
24.69, 101637.56, 0.17,-0.57, 9.69, 8378
24.69, 101637.56, 0.15,-0.61, 9.58, 8383
24.69, 101637.56, 0.17,-0.69, 9.29, 8388
24.69, 101637.56, 0.15,-0.67, 9.48, 8393
24.69, 101636.95, 0.08,-0.57, 9.50, 8398
24.69, 101636.95, 0.06,-0.61, 9.62, 8403
24.69, 101636.95, 0.17,-0.56, 9.64, 8408
24.69, 101636.95, 0.10,-0.48, 9.66, 8413
24.69, 101636.95, 0.13,-0.56, 9.60, 8418
24.69, 101636.95, 0.13,-0.54, 9.62, 8423
24.69, 101636.95, 0.21,-0.52, 9.64, 8428
24.69, 101633.93, 0.21,-0.54, 9.67, 8433
24.69, 101633.93, 0.25,-0.57, 9.64, 8438
24.69, 101633.93, 0.25,-0.61, 9.67, 8443
24.69, 101633.93, 0.27,-0.59, 9.64, 8448
24.69, 101633.93, 0.33,-0.59, 9.60, 8453
24.69, 101633.93, 0.27,-0.54, 9.50, 8458
24.69, 101633.93, 0.27,-0.54, 9.58, 8463
24.69, 101636.46, 0.31,-0.61, 9.56, 8468
24.69, 101636.46, 0.44,-0.59, 9.75, 8473
24.69, 101636.46, 0.36,-0.50, 9.66, 8478
24.69, 101636.46, 0.27,-0.48, 9.67, 8483
24.69, 101636.46, 0.23,-0.52, 9.58, 8488
24.69, 101636.46, 0.34,-0.52, 9.66, 8493
24.69, 101636.46, 0.29,-0.50, 9.56, 8498
24.69, 101636.62, 0.23,-0.52, 9.66, 8503
24.69, 101636.62, 0.23,-0.57, 9.64, 8508
24.69, 101636.62, 0.33,-0.56, 9.71, 8513
24.69, 101636.62, 0.23,-0.63, 9.62, 8518
24.69, 101636.62, 0.21,-0.52, 9.58, 8523
24.69, 101636.62, 0.21,-0.46, 9.60, 8528
24.69, 101636.62, 0.25,-0.57, 9.58, 8533
24.69, 101636.02, 0.29,-0.54, 9.60, 8538
24.69, 101636.02, 0.17,-0.50, 9.64, 8543
24.69, 101636.02, 0.15,-0.57, 9.71, 8548
24.69, 101636.02, 0.21,-0.57, 9.66, 8553
24.69, 101636.02, 0.21,-0.56, 9.64, 8558
24.69, 101636.02, 0.19,-0.54, 9.60, 8563
24.69, 101636.02, 0.19,-0.50, 9.58, 8568
24.69, 101636.02, 0.13,-0.57, 9.52, 8573
24.69, 101636.46, 0.13,-0.54, 9.62, 8578
24.69, 101636.46, 0.23,-0.63, 9.60, 8583
24.69, 101636.46, 0.15,-0.56, 9.62, 8588
24.69, 101636.46, 0.17,-0.57, 9.50, 8593
24.69, 101636.46, 0.15,-0.54, 9.56, 8598
24.69, 101636.46, 0.15,-0.63, 9.66, 8603
24.69, 101636.46, 0.15,-0.54, 9.33, 8608
24.69, 101638.28, 0.17,-0.54, 9.67, 8613
24.69, 101638.28, 0.13,-0.56, 9.66, 8618
24.69, 101638.28, 0.21,-0.52, 9.58, 8623
24.69, 101638.28, 0.27,-0.63, 9.58, 8628
24.69, 101638.28, 0.29,-0.63, 9.64, 8633
24.69, 101638.28, 0.34,-0.57, 9.58, 8638
24.69, 101638.28, 0.31,-0.65, 9.58, 8643
24.69, 101635.64, 0.19,-0.52, 9.66, 8648
24.69, 101635.64, 0.21,-0.54, 9.71, 8653
24.69, 101635.64, 0.25,-0.57, 9.66, 8658
24.69, 101635.64, 0.27,-0.46, 9.66, 8663
24.69, 101635.64, 0.23,-0.52, 9.62, 8668
24.69, 101635.64, 0.29,-0.59, 9.64, 8673
24.69, 101635.64, 0.23,-0.65, 9.62, 8678
24.69, 101635.75, 0.21,-0.69, 9.62, 8683
24.69, 101635.75, 0.21,-0.59, 9.52, 8688
24.69, 101635.75, 0.29,-0.61, 9.58, 8693
24.69, 101635.75, 0.23,-0.61, 9.69, 8698
24.69, 101635.75, 0.29,-0.61, 9.64, 8703
24.69, 101635.75, 0.25,-0.56, 9.71, 8708
24.69, 101635.75, 0.23,-0.56, 9.67, 8713
24.69, 101635.75, 0.21,-0.61, 9.62, 8718
24.69, 101635.75, 0.23,-0.54, 9.62, 8723
24.69, 101635.75, 0.13,-0.59, 9.71, 8728
24.69, 101635.75, 0.21,-0.54, 9.43, 8733
24.69, 101635.75, 0.23,-0.65, 9.66, 8738
24.69, 101635.75, 0.19,-0.65, 9.48, 8743
24.69, 101635.75, 0.17,-0.63, 9.62, 8748
24.69, 101636.02, 0.15,-0.61, 9.73, 8753
24.69, 101636.02, 0.17,-0.54, 9.69, 8758
24.69, 101636.02, 0.17,-0.59, 9.58, 8763
24.69, 101636.02, 0.21,-0.56, 9.62, 8768
24.69, 101636.02, 0.17,-0.52, 9.69, 8773
24.69, 101636.02, 0.17,-0.54, 9.56, 8778
24.69, 101636.02, 0.17,-0.52, 9.58, 8783
24.69, 101635.36, 0.21,-0.59, 9.60, 8788
24.69, 101635.36, 0.21,-0.59, 9.54, 8793
24.69, 101635.36, 0.23,-0.57, 9.58, 8798
24.69, 101635.36, 0.21,-0.56, 9.60, 8803
24.69, 101635.36, 0.34,-0.57, 9.66, 8808
24.69, 101635.36, 0.34,-0.56, 9.69, 8813
24.69, 101635.36, 0.29,-0.52, 9.69, 8818
24.69, 101635.69, 0.29,-0.57, 9.64, 8823
24.69, 101635.69, 0.27,-0.52, 9.62, 8831
24.69, 101635.69, 0.23,-0.54, 9.50, 8835
24.69, 101635.69, 0.25,-0.54, 9.66, 8840
24.69, 101635.69, 0.27,-0.52, 9.58, 8845
24.69, 101635.69, 0.23,-0.50, 9.75, 8850
24.69, 101635.69, 0.25,-0.57, 9.73, 8855
24.69, 101639.00, 0.25,-0.61, 9.64, 8860
24.69, 101639.00, 0.27,-0.54, 9.64, 8865
24.69, 101639.00, 0.15,-0.57, 9.81, 8870
24.69, 101639.00, 0.21,-0.63, 9.73, 8875
24.69, 101639.00, 0.25,-0.59, 9.62, 8880
24.69, 101639.00, 0.27,-0.54, 9.71, 8885
24.69, 101639.00, 0.15,-0.46, 9.69, 8890
24.69, 101636.08, 0.17,-0.54, 9.64, 8895
24.69, 101636.08, 0.19,-0.52, 9.66, 8900
24.69, 101636.08, 0.21,-0.54, 9.66, 8905
24.69, 101636.08, 0.21,-0.56, 9.60, 8910
24.69, 101636.08, 0.19,-0.61, 9.64, 8915
24.69, 101636.08, 0.19,-0.56, 9.69, 8920
24.69, 101636.08, 0.25,-0.56, 9.69, 8925
24.69, 101636.30, 0.21,-0.50, 9.67, 8930
24.69, 101636.30, 0.25,-0.52, 9.54, 8935
24.69, 101636.30, 0.23,-0.59, 9.66, 8940
24.69, 101636.30, 0.27,-0.56, 9.66, 8945
24.69, 101636.30, 0.25,-0.54, 9.77, 8950
24.69, 101636.30, 0.31,-0.52, 9.62, 8955
24.69, 101636.30, 0.36,-0.65, 9.58, 8960
24.69, 101636.84, 0.25,-0.61, 9.60, 8965
24.69, 101636.84, 0.27,-0.52, 9.54, 8970
24.69, 101636.84, 0.21,-0.52, 9.77, 8975
24.69, 101636.84, 0.23,-0.54, 9.69, 8980
24.69, 101636.84, 0.21,-0.57, 9.66, 8985
24.69, 101636.84, 0.23,-0.61, 9.54, 8990
24.69, 101636.84, 0.25,-0.56, 9.67, 8995
24.69, 101635.91, 0.29,-0.50, 9.60, 9000
24.69, 101635.91, 0.21,-0.56, 9.66, 9005
24.69, 101635.91, 0.19,-0.56, 9.64, 9010
24.69, 101635.91, 0.15,-0.61, 9.60, 9015
24.69, 101635.91, 0.15,-0.63, 9.62, 9020
24.69, 101635.91, 0.19,-0.61, 9.69, 9025
24.69, 101635.91, 0.21,-0.57, 9.62, 9030
24.69, 101641.23, 0.23,-0.59, 9.62, 9035
24.69, 101641.23, 0.21,-0.56, 9.60, 9040
24.69, 101641.23, 0.27,-0.56, 9.69, 9045
24.69, 101641.23, 0.23,-0.57, 9.62, 9050
24.69, 101641.23, 0.21,-0.63, 9.60, 9055
24.69, 101641.23, 0.27,-0.57, 9.73, 9060
24.69, 101641.23, 0.23,-0.56, 9.77, 9065
24.69, 101637.52, 0.17,-0.54, 9.66, 9070
24.69, 101637.52, 0.29,-0.46, 9.60, 9075
24.69, 101637.52, 0.29,-0.57, 9.71, 9080
24.69, 101637.52, 0.17,-0.56, 9.64, 9085
24.69, 101637.52, 0.17,-0.57, 9.62, 9090
24.69, 101637.52, 0.19,-0.57, 9.62, 9095
24.69, 101637.52, 0.17,-0.57, 9.64, 9100
24.69, 101637.52, 0.27,-0.52, 9.64, 9105
24.69, 101637.62, 0.19,-0.54, 9.66, 9110
24.69, 101637.62, 0.21,-0.52, 9.58, 9115
24.69, 101637.62, 0.29,-0.50, 9.60, 9120
24.69, 101637.62, 0.27,-0.56, 9.67, 9125
24.69, 101637.62, 0.27,-0.57, 9.69, 9130
24.69, 101637.62, 0.27,-0.59, 9.66, 9135
24.69, 101637.62, 0.27,-0.54, 9.60, 9140
24.69, 101636.80, 0.25,-0.52, 9.62, 9145
24.69, 101636.80, 0.21,-0.54, 9.60, 9150
24.69, 101636.80, 0.17,-0.56, 9.62, 9155
24.69, 101636.80, 0.19,-0.54, 9.58, 9160
24.69, 101636.80, 0.19,-0.56, 9.64, 9165
24.69, 101636.80, 0.21,-0.57, 9.64, 9170
24.69, 101636.80, 0.21,-0.57, 9.62, 9175
24.69, 101640.65, 0.29,-0.54, 9.62, 9180
24.69, 101640.65, 0.19,-0.61, 9.56, 9185
24.69, 101640.65, 0.25,-0.52, 9.77, 9190
24.69, 101640.65, 0.23,-0.57, 9.66, 9195
24.69, 101640.65, 0.19,-0.57, 9.64, 9200
24.69, 101640.65, 0.19,-0.54, 9.56, 9205
24.69, 101640.65, 0.19,-0.56, 9.67, 9210
24.69, 101636.62, 0.25,-0.57, 9.60, 9215
24.69, 101636.62, 0.25,-0.56, 9.60, 9220
24.69, 101636.62, 0.29,-0.56, 9.66, 9225
24.69, 101636.62, 0.23,-0.46, 9.64, 9230
24.69, 101636.62, 0.25,-0.56, 9.60, 9235
24.69, 101636.62, 0.19,-0.56, 9.58, 9240
24.69, 101636.62, 0.19,-0.59, 9.66, 9245
24.69, 101635.14, 0.21,-0.57, 9.67, 9250
24.69, 101635.14, 0.19,-0.56, 9.58, 9255
24.69, 101635.14, 0.19,-0.57, 9.64, 9260
24.69, 101635.14, 0.21,-0.57, 9.64, 9265
24.69, 101635.14, 0.25,-0.59, 9.67, 9270
24.69, 101635.14, 0.23,-0.61, 9.67, 9275
24.69, 101635.14, 0.27,-0.57, 9.69, 9280
24.69, 101637.12, 0.19,-0.52, 9.64, 9285
24.69, 101637.12, 0.23,-0.56, 9.62, 9290
24.69, 101637.12, 0.29,-0.57, 9.52, 9295
24.69, 101637.12, 0.33,-0.57, 9.52, 9300
24.69, 101637.12, 0.25,-0.48, 9.67, 9305
24.69, 101637.12, 0.25,-0.57, 9.52, 9310
24.69, 101637.12, 0.31,-0.59, 9.60, 9315
24.69, 101635.36, 0.27,-0.54, 9.56, 9320
24.69, 101635.36, 0.29,-0.56, 9.58, 9325
24.69, 101635.36, 0.27,-0.56, 9.60, 9333
24.69, 101635.36, 0.25,-0.50, 9.62, 9338
24.69, 101635.36, 0.17,-0.61, 9.79, 9343
24.69, 101635.36, 0.27,-0.61, 9.62, 9348
24.69, 101635.36, 0.23,-0.59, 9.62, 9353
24.69, 101638.77, 0.25,-0.63, 9.64, 9358
24.69, 101638.77, 0.23,-0.57, 9.64, 9363
24.69, 101638.77, 0.27,-0.56, 9.62, 9368
24.69, 101638.77, 0.19,-0.65, 9.64, 9373
24.69, 101638.77, 0.29,-0.61, 9.67, 9378
24.69, 101638.77, 0.21,-0.56, 9.67, 9383
24.69, 101638.77, 0.25,-0.59, 9.71, 9388
24.69, 101636.41, 0.21,-0.57, 9.69, 9393
24.69, 101636.41, 0.19,-0.57, 9.71, 9398
24.69, 101636.41, 0.23,-0.61, 9.64, 9403
24.69, 101636.41, 0.19,-0.65, 9.64, 9408
24.69, 101636.41, 0.19,-0.61, 9.66, 9413
24.69, 101636.41, 0.23,-0.56, 9.62, 9418
24.69, 101636.41, 0.17,-0.56, 9.56, 9423
24.69, 101638.50, 0.21,-0.57, 9.71, 9428
24.69, 101638.50, 0.23,-0.59, 9.69, 9433
24.69, 101638.50, 0.21,-0.59, 9.62, 9438
24.69, 101638.50, 0.21,-0.54, 9.64, 9443
24.69, 101638.50, 0.21,-0.67, 9.58, 9448
24.69, 101638.50, 0.15,-0.59, 9.50, 9453
24.69, 101638.50, 0.19,-0.56, 9.66, 9458
24.69, 101635.58, 0.25,-0.63, 9.64, 9463
24.69, 101635.58, 0.25,-0.63, 9.67, 9468
24.69, 101635.58, 0.25,-0.61, 9.64, 9473
24.69, 101635.58, 0.19,-0.54, 9.69, 9478
24.69, 101635.58, 0.25,-0.56, 9.64, 9483
24.69, 101635.58, 0.23,-0.56, 9.52, 9488
24.69, 101635.58, 0.29,-0.67, 9.66, 9493
24.69, 101638.61, 0.27,-0.57, 9.62, 9498
24.69, 101638.61, 0.21,-0.52, 9.56, 9503
24.69, 101638.61, 0.23,-0.56, 9.58, 9508
24.69, 101638.61, 0.25,-0.59, 9.56, 9513
24.69, 101638.61, 0.19,-0.56, 9.60, 9518
24.69, 101638.61, 0.17,-0.50, 9.62, 9523
24.69, 101638.61, 0.23,-0.56, 9.60, 9528
24.69, 101637.23, 0.21,-0.61, 9.62, 9533
24.69, 101637.23, 0.23,-0.57, 9.60, 9538
24.69, 101637.23, 0.23,-0.57, 9.60, 9543
24.69, 101637.23, 0.25,-0.57, 9.64, 9548
24.69, 101637.23, 0.21,-0.56, 9.50, 9553
24.69, 101637.23, 0.19,-0.52, 9.64, 9558
24.69, 101637.23, 0.29,-0.61, 9.62, 9563
24.69, 101638.28, 0.25,-0.63, 9.45, 9568
24.69, 101638.28, 0.19,-0.57, 9.56, 9573
24.69, 101638.28, 0.25,-0.65, 9.77, 9578
24.69, 101638.28, 0.15,-0.61, 9.81, 9583
24.69, 101638.28, 0.17,-0.63, 9.69, 9588
24.69, 101638.28, 0.27,-0.59, 9.64, 9593
24.69, 101638.28, 0.23,-0.52, 9.66, 9598
24.69, 101637.23, 0.25,-0.56, 9.64, 9603
24.69, 101637.23, 0.23,-0.59, 9.60, 9608
24.69, 101637.23, 0.17,-0.59, 9.60, 9613
24.69, 101637.23, 0.17,-0.61, 9.62, 9618
24.69, 101637.23, 0.25,-0.56, 9.62, 9623
24.69, 101637.23, 0.25,-0.56, 9.56, 9628
24.69, 101637.23, 0.25,-0.57, 9.62, 9633
24.69, 101638.22, 0.21,-0.59, 9.58, 9638
24.69, 101638.22, 0.21,-0.59, 9.60, 9643
24.69, 101638.22, 0.23,-0.56, 9.64, 9648
24.69, 101638.22, 0.19,-0.54, 9.67, 9653
24.69, 101638.22, 0.23,-0.59, 9.62, 9658
24.69, 101638.22, 0.23,-0.56, 9.64, 9663
24.69, 101638.22, 0.21,-0.52, 9.64, 9668
24.69, 101638.05, 0.25,-0.56, 9.60, 9673
24.69, 101637.17, 0.19,-0.59, 9.62, 9678
24.69, 101637.17, 0.25,-0.61, 9.69, 9683
24.69, 101637.17, 0.29,-0.44, 9.58, 9688
24.69, 101637.17, 0.27,-0.59, 9.66, 9693
24.69, 101637.17, 0.29,-0.92, 9.50, 9698
24.69, 101637.17, 0.25,-0.61, 9.62, 9703
24.69, 101637.17, 0.21,-0.63, 9.56, 9708
24.69, 101637.72, 0.31,-0.61, 9.56, 9713
24.69, 101637.72, 0.27,-0.52, 9.64, 9718
24.69, 101637.72, 0.25,-0.59, 9.64, 9723
24.69, 101637.72, 0.25,-0.57, 9.62, 9728
24.69, 101637.72, 0.27,-0.57, 9.67, 9733
24.69, 101637.72, 0.23,-0.57, 9.64, 9738
24.69, 101637.72, 0.13,-0.59, 9.62, 9743
24.69, 101637.56, 0.19,-0.56, 9.60, 9748
24.69, 101637.56, 0.23,-0.57, 9.64, 9753
24.69, 101637.56, 0.19,-0.57, 9.67, 9758
24.69, 101637.56, 0.21,-0.57, 9.62, 9763
24.69, 101637.56, 0.21,-0.61, 9.66, 9768
24.69, 101637.56, 0.25,-0.59, 9.66, 9773
24.69, 101637.56, 0.21,-0.56, 9.62, 9778
24.69, 101636.24, 0.17,-0.57, 9.66, 9783
24.69, 101636.24, 0.23,-0.56, 9.64, 9788
24.69, 101636.24, 0.23,-0.57, 9.50, 9793
24.69, 101636.24, 0.19,-0.61, 9.62, 9798
24.69, 101636.24, 0.19,-0.50, 9.62, 9803
24.69, 101636.24, 0.21,-0.57, 9.71, 9808
24.69, 101636.24, 0.19,-0.67, 9.73, 9813
24.69, 101637.06, 0.23,-0.57, 9.66, 9818
24.69, 101637.06, 0.29,-0.52, 9.66, 9823
24.69, 101637.06, 0.33,-0.63, 9.62, 9828
24.69, 101637.06, 0.31,-0.59, 9.64, 9835
24.69, 101637.06, 0.21,-0.67, 9.66, 9840
24.69, 101637.06, 0.25,-0.59, 9.64, 9845
24.69, 101637.06, 0.19,-0.61, 9.69, 9850
24.69, 101636.58, 0.23,-0.56, 9.67, 9855
24.69, 101636.58, 0.25,-0.57, 9.66, 9860
24.69, 101636.58, 0.19,-0.57, 9.62, 9865
24.69, 101636.58, 0.21,-0.54, 9.60, 9870
24.69, 101636.58, 0.25,-0.57, 9.66, 9875
24.69, 101636.58, 0.19,-0.59, 9.62, 9880
24.69, 101636.58, 0.27,-0.52, 9.62, 9885
24.69, 101637.56, 0.31,-0.56, 9.66, 9890
24.69, 101637.56, 0.17,-0.50, 9.67, 9895
24.69, 101637.56, 0.17,-0.59, 9.62, 9900
24.69, 101637.56, 0.13,-0.65, 9.67, 9905
24.69, 101637.56, 0.25,-0.59, 9.45, 9910
24.69, 101637.56, 0.17,-0.57, 9.69, 9915
24.69, 101637.56, 0.23,-0.56, 9.66, 9920
24.69, 101638.67, 0.21,-0.50, 9.56, 9925
24.69, 101638.67, 0.25,-0.54, 9.52, 9930
24.69, 101638.67, 0.21,-0.56, 9.67, 9935
24.69, 101638.67, 0.19,-0.57, 9.71, 9940
24.69, 101638.67, 0.19,-0.56, 9.66, 9945
24.69, 101638.67, 0.15,-0.54, 9.54, 9950
24.69, 101638.67, 0.21,-0.59, 9.54, 9955
24.69, 101638.61, 0.29,-0.59, 9.62, 9960
24.69, 101638.61, 0.23,-0.56, 9.64, 9965
24.69, 101638.61, 0.21,-0.61, 9.62, 9970
24.69, 101638.61, 0.25,-0.57, 9.60, 9975
24.69, 101638.61, 0.27,-0.54, 9.62, 9980
24.69, 101638.61, 0.27,-0.57, 9.64, 9985
24.69, 101638.61, 0.27,-0.63, 9.62, 9990
24.69, 101638.77, 0.21,-0.61, 9.64, 9995
24.69, 101638.77, 0.23,-0.57, 9.64, 10000
24.69, 101638.77, 0.27,-0.56, 9.58, 10005
24.69, 101638.77, 0.23,-0.63, 9.71, 10010
24.69, 101638.77, 0.23,-0.54, 9.41, 10015
24.69, 101638.77, 0.21,-0.59, 9.52, 10020
24.69, 101638.77, 0.27,-0.59, 9.67, 10025
24.69, 101635.92, 0.27,-0.65, 9.71, 10030
24.69, 101635.92, 0.25,-0.59, 9.69, 10035
24.69, 101635.92, 0.21,-0.56, 9.58, 10040
24.69, 101635.92, 0.21,-0.59, 9.67, 10045
24.69, 101635.92, 0.19,-0.54, 9.75, 10050
24.69, 101635.92, 0.23,-0.57, 9.58, 10055
24.69, 101635.92, 0.23,-0.57, 9.60, 10060
24.69, 101636.84, 0.27,-0.59, 9.60, 10065
24.69, 101636.84, 0.17,-0.61, 9.62, 10070
24.69, 101636.84, 0.19,-0.57, 9.60, 10075
24.69, 101636.84, 0.21,-0.59, 9.64, 10080
24.69, 101636.84, 0.19,-0.56, 9.58, 10085
24.69, 101636.84, 0.23,-0.56, 9.62, 10090
24.69, 101636.84, 0.17,-0.57, 9.64, 10095
24.69, 101636.36, 0.19,-0.54, 9.66, 10100
24.69, 101636.36, 0.25,-0.57, 9.60, 10105
24.69, 101636.36, 0.25,-0.59, 9.71, 10110
24.69, 101636.36, 0.29,-0.52, 9.79, 10115
24.69, 101636.36, 0.25,-0.65, 9.62, 10120
24.69, 101636.36, 0.19,-0.61, 9.75, 10125
24.69, 101636.36, 0.33,-0.59, 9.54, 10130
24.69, 101637.89, 0.23,-0.59, 9.41, 10135
24.69, 101637.89, 0.27,-0.54, 9.56, 10140
24.69, 101637.89, 0.19,-0.63, 9.52, 10145
24.69, 101637.89, 0.31,-0.57, 9.64, 10150
24.69, 101637.89, 0.23,-0.56, 9.56, 10155
24.69, 101637.89, 0.21,-0.59, 9.56, 10160
24.69, 101637.89, 0.19,-0.63, 9.54, 10165
24.69, 101638.00, 0.27,-0.56, 9.58, 10170
24.69, 101638.00, 0.27,-0.56, 9.58, 10175
24.69, 101638.00, 0.23,-0.59, 9.60, 10180
24.69, 101638.00, 0.19,-0.57, 9.62, 10185
24.69, 101638.00, 0.19,-0.54, 9.66, 10190
24.69, 101638.00, 0.19,-0.56, 9.66, 10195
24.69, 101638.00, 0.21,-0.54, 9.64, 10200
24.69, 101638.00, 0.17,-0.61, 9.62, 10205
24.69, 101639.65, 0.25,-0.63, 9.56, 10210
24.69, 101639.65, 0.25,-0.57, 9.60, 10215
24.69, 101639.65, 0.27,-0.59, 9.64, 10220
24.69, 101639.65, 0.25,-0.61, 9.62, 10225
24.69, 101639.65, 0.21,-0.57, 9.66, 10230
24.69, 101639.65, 0.23,-0.57, 9.71, 10235
24.69, 101639.65, 0.25,-0.50, 9.66, 10240
24.69, 101639.48, 0.23,-0.63, 9.73, 10245
24.69, 101639.48, 0.23,-0.50, 9.60, 10250
24.69, 101639.48, 0.23,-0.52, 9.60, 10255
24.69, 101639.48, 0.21,-0.56, 9.62, 10260
24.69, 101639.48, 0.21,-0.59, 9.60, 10265
24.69, 101639.48, 0.27,-0.52, 9.58, 10270
24.69, 101639.48, 0.23,-0.57, 9.60, 10275
24.69, 101639.21, 0.27,-0.57, 9.62, 10280
24.69, 101639.21, 0.23,-0.61, 9.60, 10285
24.69, 101639.21, 0.19,-0.59, 9.64, 10290
24.69, 101639.21, 0.15,-0.56, 9.64, 10295
24.69, 101639.21, 0.25,-0.65, 9.66, 10300
24.69, 101639.21, 0.23,-0.54, 9.64, 10305
24.69, 101639.21, 0.27,-0.61, 9.62, 10310
24.69, 101638.72, 0.19,-0.61, 9.62, 10315
24.69, 101638.72, 0.19,-0.59, 9.62, 10320
24.69, 101638.72, 0.23,-0.57, 9.60, 10325
24.69, 101638.72, 0.27,-0.54, 9.62, 10330
24.69, 101638.72, 0.21,-0.56, 9.60, 10338
24.69, 101638.72, 0.23,-0.59, 9.67, 10342
24.69, 101638.72, 0.25,-0.48, 9.69, 10347
24.69, 101639.59, 0.21,-0.54, 9.58, 10352
24.69, 101639.59, 0.29,-0.52, 9.45, 10357
24.69, 101639.59, 0.25,-0.59, 9.50, 10362
24.69, 101639.59, 0.23,-0.56, 9.62, 10367
24.69, 101639.59, 0.29,-0.59, 9.62, 10372
24.69, 101639.59, 0.21,-0.54, 9.62, 10377
24.69, 101639.59, 0.25,-0.57, 9.69, 10382
24.69, 101640.20, 0.27,-0.59, 9.69, 10387
24.69, 101640.20, 0.25,-0.54, 9.58, 10392
24.69, 101640.20, 0.25,-0.54, 9.60, 10397
24.69, 101640.20, 0.17,-0.52, 9.64, 10402
24.69, 101640.20, 0.25,-0.50, 9.67, 10407
24.69, 101640.20, 0.19,-0.54, 9.64, 10412
24.69, 101640.20, 0.21,-0.56, 9.69, 10417
24.69, 101641.25, 0.19,-0.57, 9.64, 10422
24.69, 101641.25, 0.25,-0.54, 9.64, 10427
24.69, 101641.25, 0.19,-0.57, 9.60, 10432
24.69, 101641.25, 0.23,-0.54, 9.60, 10437
24.69, 101641.25, 0.25,-0.52, 9.58, 10442
24.69, 101641.25, 0.19,-0.50, 9.58, 10447
24.69, 101641.25, 0.27,-0.61, 9.73, 10452
24.69, 101637.50, 0.21,-0.56, 9.64, 10457
24.69, 101637.50, 0.23,-0.56, 9.69, 10462
24.69, 101637.50, 0.25,-0.56, 9.50, 10467
24.69, 101637.50, 0.25,-0.56, 9.66, 10472
24.69, 101637.50, 0.27,-0.65, 9.71, 10477
24.69, 101637.50, 0.21,-0.67, 9.67, 10482
24.69, 101637.50, 0.29,-0.56, 9.71, 10487
24.69, 101637.58, 0.31,-0.50, 9.66, 10492
24.69, 101637.58, 0.23,-0.50, 9.62, 10497
24.69, 101637.58, 0.23,-0.63, 9.64, 10502
24.69, 101637.58, 0.21,-0.56, 9.66, 10507
24.69, 101637.58, 0.19,-0.54, 9.60, 10512
24.69, 101637.58, 0.29,-0.61, 9.58, 10517
24.69, 101637.58, 0.27,-0.59, 9.58, 10522
24.69, 101638.16, 0.23,-0.61, 9.62, 10527
24.69, 101638.16, 0.21,-0.56, 9.62, 10532
24.69, 101638.16, 0.25,-0.59, 9.60, 10537
24.69, 101638.16, 0.27,-0.57, 9.60, 10542
24.69, 101638.16, 0.29,-0.57, 9.62, 10547
24.69, 101638.16, 0.25,-0.63, 9.66, 10552
24.69, 101638.16, 0.23,-0.65, 9.62, 10557
24.69, 101638.00, 0.21,-0.67, 9.66, 10562
24.69, 101638.00, 0.17,-0.56, 9.39, 10567
24.69, 101638.00, 0.27,-0.54, 9.67, 10572
24.69, 101638.00, 0.23,-0.50, 9.66, 10577
24.69, 101638.00, 0.23,-0.73, 9.60, 10582
24.69, 101638.00, 0.19,-0.33, 9.67, 10587
24.69, 101638.00, 0.27,-0.63, 9.75, 10592
24.69, 101638.56, 0.25,-0.56, 9.69, 10597
24.69, 101638.56, 0.29,-0.54, 9.64, 10602
24.69, 101638.56, 0.23,-0.59, 9.58, 10607
24.69, 101638.56, 0.25,-0.61, 9.58, 10612
24.69, 101638.56, 0.27,-0.57, 9.71, 10617
24.69, 101638.56, 0.27,-0.57, 9.69, 10622
24.69, 101638.56, 0.27,-0.63, 9.62, 10627
24.69, 101637.34, 0.21,-0.56, 9.58, 10632
24.69, 101637.34, 0.27,-0.50, 9.62, 10637
24.69, 101637.34, 0.23,-0.50, 9.71, 10642
24.69, 101637.34, 0.15,-0.48, 9.64, 10647
24.69, 101637.34, 0.21,-0.54, 9.62, 10652
24.69, 101637.34, 0.21,-0.52, 9.64, 10657
24.69, 101637.34, 0.23,-0.57, 9.64, 10662
24.69, 101639.05, 0.23,-0.63, 9.64, 10667
24.69, 101639.05, 0.21,-0.50, 9.67, 10672
24.69, 101639.05, 0.17,-0.52, 9.66, 10677
24.69, 101639.05, 0.19,-0.52, 9.62, 10682
24.69, 101639.05, 0.19,-0.56, 9.52, 10687
24.69, 101639.05, 0.21,-0.59, 9.75, 10692
24.69, 101639.05, 0.25,-0.46, 9.77, 10697
24.69, 101638.66, 0.21,-0.46, 9.52, 10702
24.69, 101638.66, 0.27,-0.52, 9.50, 10707
24.69, 101638.66, 0.25,-0.63, 9.58, 10712
24.69, 101638.66, 0.25,-0.63, 9.62, 10717
24.69, 101638.66, 0.25,-0.63, 9.60, 10722
24.69, 101638.66, 0.21,-0.56, 9.60, 10727
24.69, 101638.66, 0.25,-0.48, 9.64, 10732
24.69, 101638.66, 0.23,-0.52, 9.67, 10737
24.69, 101638.39, 0.17,-0.57, 9.58, 10742
24.69, 101638.39, 0.21,-0.59, 9.62, 10747
24.69, 101638.39, 0.21,-0.56, 9.64, 10752
24.69, 101638.39, 0.19,-0.61, 9.62, 10757
24.69, 101638.39, 0.23,-0.59, 9.60, 10762
24.69, 101638.39, 0.17,-0.63, 9.66, 10767
24.69, 101638.39, 0.25,-0.61, 9.67, 10772
24.69, 101639.38, 0.21,-0.57, 9.58, 10777
24.69, 101639.38, 0.25,-0.59, 9.60, 10782
24.69, 101639.38, 0.19,-0.56, 9.64, 10787
24.69, 101639.38, 0.19,-0.52, 9.62, 10792
24.69, 101639.38, 0.13,-0.57, 9.56, 10797
24.69, 101639.38, 0.21,-0.59, 9.64, 10802
24.69, 101639.38, 0.23,-0.48, 9.58, 10807
24.69, 101639.77, 0.23,-0.48, 9.67, 10812
24.69, 101639.77, 0.17,-0.52, 9.67, 10817
24.69, 101639.77, 0.21,-0.57, 9.67, 10822
24.69, 101639.77, 0.27,-0.52, 9.67, 10827
24.69, 101639.77, 0.33,-0.56, 9.50, 10832
24.69, 101638.88, 0.17,-0.69, 9.67, 10846
24.69, 101638.88, 0.23,-0.67, 9.62, 10850
24.69, 101638.88, 0.17,-0.63, 9.64, 10855
24.69, 101638.88, 0.27,-0.52, 9.64, 10860
24.69, 101638.88, 0.27,-0.54, 9.73, 10865
24.69, 101638.88, 0.23,-0.54, 9.69, 10870
24.69, 101638.88, 0.21,-0.54, 9.64, 10875
24.69, 101637.34, 0.17,-0.54, 9.64, 10880
24.69, 101637.34, 0.23,-0.54, 9.60, 10885
24.69, 101637.34, 0.25,-0.59, 9.62, 10890
24.69, 101637.34, 0.29,-0.52, 9.64, 10895
24.69, 101637.34, 0.27,-0.56, 9.62, 10900
24.69, 101637.34, 0.27,-0.50, 9.64, 10905
24.69, 101637.34, 0.29,-0.52, 9.56, 10910
24.69, 101637.72, 0.29,-0.52, 9.48, 10915
24.69, 101637.72, 0.23,-0.56, 9.58, 10920
24.69, 101637.72, 0.21,-0.56, 9.46, 10925
24.69, 101637.72, 0.27,-0.54, 9.81, 10930
24.69, 101637.72, 0.29,-0.56, 9.77, 10935
24.69, 101637.72, 0.21,-0.67, 9.69, 10940
24.69, 101637.72, 0.15,-0.92, 9.58, 10945
24.69, 101637.72, 0.19,-0.59, 9.60, 10950
24.69, 101638.45, 0.21,-0.57, 9.58, 10955
24.69, 101638.45, 0.23,-0.57, 9.60, 10960
24.69, 101638.45, 0.25,-0.59, 9.62, 10965
24.69, 101638.45, 0.27,-0.54, 9.60, 10970
24.69, 101638.45, 0.25,-0.50, 9.62, 10975
24.69, 101638.45, 0.23,-0.54, 9.64, 10980
24.69, 101638.45, 0.27,-0.50, 9.67, 10985
24.69, 101639.27, 0.23,-0.56, 9.60, 10990
24.69, 101639.27, 0.19,-0.54, 9.66, 10995
24.69, 101639.27, 0.21,-0.57, 9.66, 11000
24.69, 101639.27, 0.29,-0.54, 9.58, 11005
24.69, 101639.27, 0.27,-0.46, 9.64, 11010
24.69, 101639.27, 0.21,-0.56, 9.58, 11015
24.69, 101639.27, 0.33,-0.56, 9.60, 11020
24.69, 101636.62, 0.19,-0.57, 9.64, 11025
24.69, 101636.62, 0.23,-0.54, 9.67, 11030
24.69, 101636.62, 0.27,-0.63, 9.73, 11035
24.69, 101636.62, 0.31,-0.69, 9.89, 11040
24.69, 101636.62, 0.27,-0.61, 9.62, 11045
24.69, 101636.62, 0.25,-0.57, 9.66, 11050
24.69, 101636.62, 0.17,-0.57, 9.79, 11055
24.69, 101639.10, 0.17,-0.61, 9.58, 11060
24.69, 101639.10, 0.31,-0.54, 9.58, 11065
24.69, 101639.10, 0.27,-0.56, 9.54, 11070
24.69, 101639.10, 0.27,-0.48, 9.58, 11075
24.69, 101639.10, 0.21,-0.50, 9.58, 11080
24.69, 101639.10, 0.25,-0.61, 9.52, 11085
24.69, 101639.10, 0.21,-0.61, 9.66, 11090
24.69, 101641.25, 0.25,-0.56, 9.58, 11095
24.69, 101641.25, 0.21,-0.56, 9.54, 11100
24.69, 101641.25, 0.23,-0.57, 9.62, 11105
24.69, 101641.25, 0.21,-0.57, 9.66, 11110
24.69, 101641.25, 0.23,-0.52, 9.66, 11115
24.69, 101641.25, 0.21,-0.59, 9.58, 11120
24.69, 101641.25, 0.17,-0.61, 9.60, 11125
24.69, 101640.26, 0.25,-0.56, 9.67, 11130
24.69, 101640.26, 0.23,-0.52, 9.64, 11135
24.69, 101640.26, 0.23,-0.52, 9.58, 11140
24.69, 101640.26, 0.27,-0.57, 9.54, 11145
24.69, 101640.26, 0.23,-0.56, 9.66, 11150
24.69, 101640.26, 0.23,-0.56, 9.64, 11155
24.69, 101640.26, 0.15,-0.54, 9.66, 11160
24.69, 101639.31, 0.21,-0.48, 9.62, 11165
24.69, 101639.31, 0.29,-0.56, 9.75, 11170
24.69, 101639.31, 0.29,-0.54, 9.73, 11175
24.69, 101639.31, 0.25,-0.63, 9.64, 11180
24.69, 101639.31, 0.21,-0.67, 9.62, 11185
24.69, 101639.31, 0.21,-0.59, 9.64, 11190
24.69, 101639.31, 0.27,-0.50, 9.60, 11195
24.69, 101638.22, 0.21,-0.57, 9.64, 11200
24.69, 101638.22, 0.25,-0.56, 9.60, 11205
24.69, 101638.22, 0.23,-0.54, 9.62, 11210
24.69, 101638.22, 0.23,-0.59, 9.60, 11215
24.69, 101638.22, 0.21,-0.56, 9.60, 11220
24.69, 101638.22, 0.21,-0.63, 9.60, 11225
24.69, 101638.22, 0.23,-0.52, 9.58, 11230
24.69, 101637.01, 0.25,-0.61, 9.66, 11235
24.69, 101637.01, 0.23,-0.61, 9.62, 11240
24.69, 101637.01, 0.23,-0.63, 9.62, 11245
24.69, 101637.01, 0.25,-0.50, 9.69, 11250
24.69, 101637.01, 0.31,-0.52, 9.73, 11255
24.69, 101637.01, 0.23,-0.61, 9.69, 11260
24.69, 101637.01, 0.25,-0.46, 9.58, 11265
24.69, 101640.98, 0.25,-0.48, 9.71, 11270
24.69, 101640.98, 0.21,-0.54, 9.56, 11275
24.69, 101640.98, 0.21,-0.57, 9.64, 11280
24.69, 101640.98, 0.21,-0.65, 9.67, 11285
24.69, 101640.98, 0.23,-0.65, 9.69, 11290
24.69, 101640.98, 0.31,-0.61, 9.60, 11295
24.69, 101640.98, 0.34,-0.57, 9.64, 11300
24.69, 101637.12, 0.33,-0.50, 9.71, 11305
24.69, 101637.12, 0.21,-0.59, 9.69, 11310
24.69, 101637.12, 0.19,-0.59, 9.60, 11315
24.69, 101637.12, 0.15,-0.59, 9.64, 11320
24.69, 101637.12, 0.17,-0.57, 9.66, 11325
24.69, 101637.12, 0.27,-0.57, 9.58, 11330
24.69, 101637.12, 0.19,-0.57, 9.71, 11335
24.69, 101637.12, 0.19,-0.59, 9.56, 11340
24.69, 101639.59, 0.23,-0.63, 9.79, 11348
24.69, 101639.59, 0.25,-0.67, 9.66, 11352
24.69, 101639.59, 0.27,-0.52, 9.64, 11357
24.69, 101639.59, 0.27,-0.57, 10.02, 11362
24.69, 101639.59, 0.27,-0.63, 9.71, 11367
24.69, 101639.59, 0.23,-0.61, 9.58, 11372
24.69, 101637.23, 0.29,-0.61, 9.73, 11377
24.69, 101637.23, 0.25,-0.63, 9.56, 11382
24.69, 101637.23, 0.19,-0.54, 9.71, 11387
24.69, 101637.23, 0.17,-0.54, 9.48, 11392
24.69, 101637.23, 0.23,-0.61, 9.48, 11397
24.69, 101637.23, 0.25,-0.63, 9.56, 11402
24.69, 101637.23, 0.27,-0.52, 9.75, 11407
24.69, 101640.59, 0.25,-0.48, 9.73, 11412
24.69, 101640.59, 0.29,-0.54, 9.60, 11417
24.69, 101640.59, 0.27,-0.57, 9.58, 11422
24.69, 101640.59, 0.25,-0.59, 9.75, 11427
24.69, 101640.59, 0.21,-0.61, 9.71, 11432
24.69, 101640.59, 0.25,-0.57, 9.71, 11437
24.69, 101640.59, 0.31,-0.61, 9.73, 11442
24.69, 101636.41, 0.21,-0.57, 9.67, 11447
24.69, 101636.41, 0.25,-0.65, 9.69, 11452
24.69, 101636.41, 0.23,-0.63, 9.73, 11457
24.69, 101636.41, 0.19,-0.50, 9.90, 11462
24.69, 101636.41, 0.17,-0.54, 9.83, 11467
24.69, 101636.41, 0.21,-0.65, 9.79, 11472
24.69, 101636.41, 0.19,-0.59, 9.69, 11477
24.69, 101636.41, 0.25,-0.63, 9.66, 11482
24.69, 101638.01, 0.31,-0.57, 9.64, 11487
24.69, 101638.01, 0.31,-0.61, 9.56, 11492
24.69, 101638.01, 0.27,-0.56, 9.56, 11497
24.69, 101638.01, 0.21,-0.48, 9.66, 11502
24.69, 101638.01, 0.25,-0.57, 9.66, 11507
24.69, 101638.01, 0.21,-0.57, 9.64, 11512
24.69, 101638.01, 0.29,-0.56, 9.66, 11517
24.69, 101637.89, 0.27,-0.54, 9.58, 11522
24.69, 101637.89, 0.25,-0.56, 9.64, 11527
24.69, 101637.89, 0.21,-0.56, 9.62, 11532
24.69, 101637.89, 0.15,-0.56, 9.69, 11537
24.69, 101637.89, 0.19,-0.52, 9.60, 11542
24.69, 101637.89, 0.19,-0.61, 9.64, 11547
24.69, 101637.89, 0.19,-0.59, 9.66, 11552
24.69, 101636.91, 0.17,-0.61, 9.62, 11557
24.69, 101636.91, 0.27,-0.57, 9.60, 11562
24.69, 101636.91, 0.29,-0.54, 9.56, 11567
24.69, 101636.91, 0.27,-0.67, 9.58, 11572
24.69, 101636.91, 0.25,-0.57, 9.71, 11577
24.69, 101636.91, 0.27,-0.54, 9.64, 11582
24.69, 101636.91, 0.27,-0.48, 9.62, 11587
24.69, 101637.01, 0.21,-0.48, 9.75, 11592
24.69, 101637.01, 0.25,-0.61, 9.71, 11597
24.69, 101637.01, 0.25,-0.54, 9.64, 11602
24.69, 101637.01, 0.23,-0.59, 9.54, 11607
24.69, 101637.01, 0.25,-0.57, 9.58, 11612
24.69, 101637.01, 0.25,-0.59, 9.62, 11617
24.69, 101637.01, 0.33,-0.57, 9.60, 11622
24.69, 101638.49, 0.23,-0.59, 9.60, 11627
24.69, 101638.49, 0.23,-0.59, 9.66, 11632
24.69, 101638.49, 0.23,-0.57, 9.60, 11637
24.69, 101638.49, 0.25,-0.56, 9.58, 11642
24.69, 101638.49, 0.19,-0.59, 9.58, 11647
24.69, 101638.49, 0.23,-0.59, 9.60, 11652
24.69, 101638.49, 0.19,-0.57, 9.58, 11657
24.69, 101638.94, 0.15,-0.57, 9.60, 11662
24.69, 101638.94, 0.19,-0.48, 9.64, 11667
24.69, 101638.94, 0.17,-0.52, 9.66, 11672
24.69, 101638.94, 0.25,-0.50, 9.71, 11677
24.69, 101638.94, 0.27,-0.56, 9.56, 11682
24.69, 101638.94, 0.21,-0.57, 9.66, 11687
24.69, 101638.94, 0.21,-0.65, 9.67, 11692
24.69, 101640.09, 0.27,-0.63, 9.62, 11697
24.69, 101640.09, 0.21,-0.61, 9.60, 11702
24.69, 101640.09, 0.23,-0.57, 9.66, 11707
24.69, 101640.09, 0.25,-0.61, 9.58, 11712
24.69, 101640.09, 0.17,-0.52, 9.69, 11717
24.69, 101640.09, 0.27,-0.57, 9.69, 11722
24.69, 101640.09, 0.17,-0.57, 9.66, 11727
24.69, 101639.44, 0.31,-0.56, 9.66, 11732
24.69, 101639.44, 0.25,-0.56, 9.71, 11737
24.69, 101639.44, 0.21,-0.54, 9.67, 11742
24.69, 101639.44, 0.17,-0.57, 9.67, 11747
24.69, 101639.44, 0.23,-0.59, 9.71, 11752
24.69, 101639.44, 0.21,-0.56, 9.66, 11757
24.69, 101639.44, 0.23,-0.56, 9.66, 11762
24.69, 101637.62, 0.27,-0.54, 9.66, 11767
24.69, 101637.62, 0.21,-0.56, 9.60, 11772
24.69, 101637.62, 0.23,-0.57, 9.60, 11777
24.69, 101637.62, 0.17,-0.61, 9.60, 11782
24.69, 101637.62, 0.19,-0.56, 9.64, 11787
24.69, 101637.62, 0.23,-0.56, 9.79, 11792
24.69, 101637.62, 0.25,-0.50, 9.71, 11797
24.69, 101639.10, 0.25,-0.57, 9.64, 11802
24.69, 101639.10, 0.27,-0.57, 9.56, 11807
24.69, 101639.10, 0.29,-0.61, 9.69, 11812
24.69, 101639.10, 0.21,-0.65, 9.79, 11817
24.69, 101639.10, 0.23,-0.57, 9.67, 11822
24.69, 101639.10, 0.15,-0.59, 9.60, 11827
24.69, 101639.10, 0.23,-0.57, 9.54, 11832
24.69, 101639.10, 0.21,-0.46, 9.60, 11837
24.69, 101637.17, 0.15,-0.57, 9.56, 11842
24.69, 101637.17, 0.19,-0.57, 9.64, 11850
24.69, 101637.17, 0.15,-0.52, 9.60, 11854
24.69, 101637.17, 0.23,-0.54, 9.66, 11859
24.69, 101637.17, 0.21,-0.57, 9.67, 11864
24.69, 101637.17, 0.23,-0.56, 9.64, 11869
24.69, 101641.64, 0.25,-0.54, 9.66, 11874
24.69, 101641.64, 0.21,-0.52, 9.56, 11879
24.69, 101641.64, 0.19,-0.52, 9.52, 11884
24.69, 101641.64, 0.23,-0.54, 9.31, 11889
24.69, 101641.64, 0.21,-0.54, 9.41, 11894
24.69, 101641.64, 0.11,-0.52, 9.69, 11899
24.69, 101641.64, 0.19,-0.56, 9.46, 11904
24.69, 101641.41, 0.23,-0.56, 9.73, 11909
24.69, 101641.41, 0.23,-0.57, 9.66, 11914
24.69, 101641.41, 0.31,-0.56, 9.60, 11919
24.69, 101641.41, 0.27,-0.59, 9.58, 11924
24.69, 101641.41, 0.19,-0.52, 9.60, 11929
24.69, 101641.41, 0.25,-0.54, 9.64, 11934
24.69, 101641.41, 0.25,-0.57, 9.62, 11939
24.69, 101639.82, 0.27,-0.59, 9.64, 11944
24.69, 101639.82, 0.19,-0.54, 9.62, 11949
24.69, 101639.82, 0.21,-0.59, 9.56, 11954
24.69, 101639.82, 0.31,-0.56, 9.58, 11959
24.69, 101639.82, 0.23,-0.56, 9.58, 11964
24.69, 101639.82, 0.17,-0.52, 9.64, 11969
24.69, 101639.82, 0.23,-0.52, 9.66, 11974
24.69, 101639.82, 0.19,-0.56, 9.62, 11979
24.69, 101637.89, 0.17,-0.56, 9.64, 11984
24.69, 101637.89, 0.23,-0.57, 9.64, 11989
24.69, 101637.89, 0.23,-0.56, 9.56, 11994
24.69, 101637.89, 0.15,-0.59, 9.56, 11999
24.69, 101637.89, 0.10,-0.54, 9.60, 12004
24.69, 101637.89, 0.23,-0.50, 9.62, 12009
24.69, 101637.89, 0.17,-0.59, 9.71, 12014
24.69, 101638.28, 0.27,-0.65, 9.62, 12019
24.69, 101638.28, 0.23,-0.59, 9.58, 12024
24.69, 101638.28, 0.29,-0.54, 9.73, 12029
24.69, 101638.28, 0.29,-0.59, 9.64, 12034
24.69, 101638.28, 0.21,-0.56, 9.66, 12039
24.69, 101638.28, 0.27,-0.56, 9.66, 12044
24.69, 101638.28, 0.25,-0.54, 9.64, 12049
24.69, 101639.27, 0.25,-0.61, 9.73, 12054
24.69, 101639.27, 0.27,-0.61, 9.62, 12059
24.69, 101639.27, 0.19,-0.54, 9.60, 12064
24.69, 101639.27, 0.19,-0.65, 9.66, 12069
24.69, 101639.27, 0.19,-0.61, 9.67, 12074
24.69, 101639.27, 0.19,-0.56, 9.66, 12079
24.69, 101639.27, 0.23,-0.57, 9.66, 12084
24.69, 101638.77, 0.19,-0.54, 9.66, 12089
24.69, 101638.77, 0.23,-0.59, 9.60, 12094
24.69, 101638.77, 0.17,-0.61, 9.60, 12099
24.69, 101638.77, 0.25,-0.56, 9.69, 12104
24.69, 101638.77, 0.21,-0.59, 9.60, 12109
24.69, 101638.77, 0.21,-0.57, 9.64, 12114
24.69, 101638.77, 0.25,-0.56, 9.66, 12119
24.69, 101637.95, 0.23,-0.48, 9.67, 12124
24.69, 101637.95, 0.25,-0.54, 9.66, 12129
24.69, 101637.95, 0.27,-0.56, 9.54, 12134
24.69, 101637.95, 0.19,-0.63, 9.52, 12139
24.69, 101637.95, 0.21,-0.57, 9.67, 12144
24.69, 101637.95, 0.25,-0.56, 9.54, 12149
24.69, 101637.95, 0.29,-0.54, 9.58, 12154
24.69, 101639.27, 0.29,-0.61, 9.66, 12159
24.69, 101639.27, 0.23,-0.59, 9.67, 12164
24.69, 101639.27, 0.25,-0.56, 9.66, 12169
24.69, 101639.27, 0.23,-0.52, 9.64, 12174
24.69, 101639.27, 0.25,-0.56, 9.60, 12179
24.69, 101639.27, 0.25,-0.52, 9.64, 12184
24.69, 101639.27, 0.29,-0.56, 9.64, 12189
24.69, 101640.42, 0.19,-0.54, 9.60, 12194
24.69, 101640.42, 0.21,-0.52, 9.62, 12199
24.69, 101640.42, 0.19,-0.61, 9.60, 12204
24.69, 101640.42, 0.19,-0.57, 9.66, 12209
24.69, 101640.42, 0.25,-0.61, 9.62, 12214
24.69, 101640.42, 0.19,-0.59, 9.64, 12219
24.69, 101640.42, 0.23,-0.57, 9.69, 12224
24.69, 101636.08, 0.25,-0.59, 9.67, 12229
24.69, 101636.08, 0.21,-0.57, 9.66, 12234
24.69, 101636.08, 0.17,-0.57, 9.56, 12239
24.69, 101636.08, 0.17,-0.61, 9.58, 12244
24.69, 101636.08, 0.17,-0.54, 9.60, 12249
24.69, 101636.08, 0.27,-0.50, 9.62, 12254
24.69, 101636.08, 0.21,-0.48, 9.60, 12259
24.69, 101637.29, 0.29,-0.57, 9.58, 12264
24.69, 101637.29, 0.15,-0.57, 9.58, 12269
24.69, 101637.29, 0.23,-0.56, 9.62, 12274
24.69, 101637.29, 0.23,-0.57, 9.66, 12279
24.69, 101637.29, 0.23,-0.61, 9.52, 12284
24.69, 101637.29, 0.23,-0.56, 9.54, 12289
24.69, 101637.29, 0.15,-0.54, 9.62, 12294
24.69, 101637.34, 0.17,-0.65, 9.69, 12299
24.69, 101637.34, 0.25,-0.57, 9.67, 12304
24.69, 101637.34, 0.25,-0.59, 9.64, 12309
24.69, 101637.34, 0.21,-0.54, 9.66, 12314
24.69, 101637.34, 0.21,-0.54, 9.62, 12319
24.69, 101637.34, 0.19,-0.56, 9.64, 12324
24.69, 101637.34, 0.19,-0.56, 9.66, 12329
24.69, 101638.34, 0.23,-0.54, 9.67, 12334
24.69, 101638.34, 0.21,-0.59, 9.69, 12339
24.69, 101638.34, 0.23,-0.56, 9.64, 12344
24.69, 101638.34, 0.19,-0.59, 9.75, 12354
24.69, 101638.34, 0.17,-0.54, 9.71, 12358
24.69, 101638.34, 0.23,-0.57, 9.66, 12363
24.69, 101638.34, 0.21,-0.56, 9.64, 12368
24.69, 101636.14, 0.25,-0.61, 9.62, 12373
24.69, 101636.14, 0.15,-0.63, 9.60, 12378
24.69, 101636.14, 0.25,-0.63, 9.64, 12383
24.69, 101636.14, 0.27,-0.56, 9.69, 12388
24.69, 101636.14, 0.23,-0.59, 9.69, 12393
24.69, 101636.14, 0.25,-0.57, 9.64, 12398
24.69, 101636.14, 0.27,-0.56, 9.62, 12403
24.69, 101637.44, 0.21,-0.48, 9.67, 12408
24.69, 101637.44, 0.21,-0.54, 9.64, 12413
24.69, 101637.44, 0.21,-0.63, 9.69, 12418
24.69, 101637.44, 0.21,-0.59, 9.71, 12423
24.69, 101637.44, 0.17,-0.56, 9.71, 12428
24.69, 101637.44, 0.21,-0.65, 9.62, 12433
24.69, 101637.44, 0.21,-0.67, 9.66, 12438
24.69, 101636.85, 0.21,-0.50, 9.83, 12443
24.69, 101636.85, 0.29,-0.57, 9.50, 12448
24.69, 101636.85, 0.27,-0.63, 9.66, 12453
24.69, 101636.85, 0.21,-0.61, 9.66, 12458
24.69, 101636.85, 0.23,-0.57, 9.60, 12463
24.69, 101636.85, 0.25,-0.59, 9.58, 12468
24.69, 101636.85, 0.29,-0.56, 9.60, 12473
24.69, 101639.00, 0.23,-0.52, 9.60, 12478
24.69, 101639.00, 0.25,-0.54, 9.66, 12483
24.69, 101639.00, 0.19,-0.52, 9.81, 12488
24.69, 101639.00, 0.27,-0.57, 9.67, 12493
24.69, 101639.00, 0.23,-0.57, 9.67, 12498
24.69, 101639.00, 0.25,-0.59, 9.64, 12503
24.69, 101639.00, 0.23,-0.56, 9.66, 12508
24.69, 101640.24, 0.19,-0.61, 9.58, 12513
24.69, 101640.24, 0.23,-0.52, 9.58, 12518
24.69, 101640.24, 0.23,-0.54, 9.60, 12523
24.69, 101640.24, 0.21,-0.52, 9.56, 12528
24.69, 101640.24, 0.19,-0.54, 9.60, 12533
24.69, 101640.24, 0.19,-0.52, 9.62, 12538
24.69, 101640.24, 0.27,-0.56, 9.69, 12543
24.69, 101636.19, 0.31,-0.61, 9.73, 12548
24.69, 101636.19, 0.25,-0.57, 9.58, 12553
24.69, 101636.19, 0.13,-0.65, 9.58, 12558
24.69, 101636.19, 0.23,-0.56, 9.58, 12563
24.69, 101636.19, 0.17,-0.52, 9.71, 12568
24.69, 101636.19, 0.19,-0.52, 9.71, 12573
24.69, 101636.19, 0.06,-0.56, 9.67, 12578
24.69, 101639.16, 0.15,-0.54, 9.62, 12583
24.69, 101639.16, 0.21,-0.57, 9.67, 12588
24.69, 101639.16, 0.19,-0.61, 9.66, 12593
24.69, 101639.16, 0.25,-0.59, 9.66, 12598
24.69, 101639.16, 0.21,-0.56, 9.66, 12603
24.69, 101639.16, 0.27,-0.63, 9.60, 12608
24.69, 101639.16, 0.21,-0.50, 9.60, 12613
24.69, 101635.64, 0.27,-0.54, 9.60, 12618
24.69, 101635.64, 0.21,-0.54, 9.62, 12623
24.69, 101635.64, 0.29,-0.52, 9.66, 12628
24.69, 101635.64, 0.31,-0.52, 9.64, 12633
24.69, 101635.64, 0.25,-0.54, 9.66, 12638
24.69, 101635.64, 0.21,-0.61, 9.67, 12643
24.69, 101635.64, 0.29,-0.65, 9.69, 12648
24.69, 101635.64, 0.27,-0.65, 9.71, 12653
24.69, 101636.85, 0.19,-0.61, 9.64, 12658
24.69, 101636.85, 0.11,-0.56, 9.48, 12663
24.69, 101636.85, 0.13,-0.50, 9.37, 12668
24.69, 101636.85, 0.17,-0.57, 9.71, 12673
24.69, 101636.85, 0.21,-0.63, 9.75, 12678
24.69, 101636.85, 0.25,-0.56, 9.66, 12683
24.69, 101636.85, 0.31,-0.57, 9.60, 12688
24.69, 101635.69, 0.27,-0.54, 9.58, 12693
24.69, 101635.69, 0.27,-0.50, 9.71, 12698
24.69, 101635.69, 0.23,-0.56, 9.52, 12703
24.69, 101635.69, 0.23,-0.57, 9.60, 12708
24.69, 101635.69, 0.23,-0.57, 9.60, 12713
24.69, 101635.69, 0.27,-0.57, 9.60, 12718
24.69, 101635.69, 0.23,-0.56, 9.60, 12723
24.69, 101640.41, 0.25,-0.57, 9.66, 12728
24.69, 101640.41, 0.23,-0.63, 9.64, 12733
24.69, 101640.41, 0.17,-0.61, 9.66, 12738
24.69, 101640.41, 0.17,-0.61, 9.60, 12743
24.69, 101640.41, 0.21,-0.59, 9.60, 12748
24.69, 101640.41, 0.19,-0.61, 9.52, 12753
24.69, 101640.41, 0.23,-0.59, 9.62, 12758
24.69, 101639.16, 0.23,-0.59, 9.64, 12763
24.69, 101639.16, 0.21,-0.50, 9.62, 12768
24.69, 101639.16, 0.25,-0.54, 9.58, 12773
24.69, 101639.16, 0.34,-0.59, 9.67, 12778
24.69, 101639.16, 0.25,-0.57, 9.66, 12783
24.69, 101639.16, 0.21,-0.65, 9.64, 12788
24.69, 101639.16, 0.23,-0.57, 9.64, 12793
24.69, 101640.24, 0.25,-0.57, 9.67, 12798
24.69, 101640.24, 0.27,-0.54, 9.71, 12803
24.69, 101640.24, 0.27,-0.56, 9.66, 12808
24.69, 101640.24, 0.27,-0.56, 9.64, 12813
24.69, 101640.24, 0.21,-0.52, 9.58, 12818
24.69, 101640.24, 0.19,-0.59, 9.58, 12823
24.69, 101640.24, 0.25,-0.61, 9.56, 12828
24.69, 101634.65, 0.21,-0.59, 9.60, 12833
24.69, 101634.65, 0.27,-0.61, 9.62, 12838
24.69, 101634.65, 0.27,-0.52, 9.64, 12843
24.69, 101634.65, 0.21,-0.52, 9.62, 12848
24.69, 101634.65, 0.23,-0.56, 9.58, 12856
24.69, 101634.65, 0.31,-0.57, 9.58, 12860
24.69, 101634.65, 0.17,-0.52, 9.73, 12865
24.69, 101635.86, 0.27,-0.57, 9.54, 12870
24.69, 101635.86, 0.23,-0.59, 9.64, 12875
24.69, 101635.86, 0.23,-0.63, 9.75, 12880
24.69, 101635.86, 0.29,-0.52, 9.71, 12885
24.69, 101635.86, 0.23,-0.54, 9.46, 12890
24.69, 101635.86, 0.19,-0.54, 9.50, 12895
24.69, 101635.86, 0.23,-0.59, 9.56, 12900
24.69, 101637.99, 0.27,-0.54, 9.60, 12905
24.69, 101637.99, 0.27,-0.56, 9.62, 12910
24.69, 101637.99, 0.29,-0.56, 9.56, 12915
24.69, 101637.99, 0.23,-0.54, 9.52, 12920
24.69, 101637.99, 0.19,-0.52, 9.54, 12925
24.69, 101637.99, 0.31,-0.54, 9.60, 12930
24.69, 101637.99, 0.25,-0.56, 9.60, 12935
24.69, 101636.85, 0.25,-0.59, 9.58, 12940
24.69, 101636.85, 0.25,-0.56, 9.64, 12945
24.69, 101636.85, 0.25,-0.54, 9.64, 12950
24.69, 101636.85, 0.29,-0.54, 9.60, 12955
24.69, 101636.85, 0.25,-0.57, 9.60, 12960
24.69, 101636.85, 0.21,-0.57, 9.58, 12965
24.69, 101636.85, 0.21,-0.59, 9.67, 12970
24.69, 101634.98, 0.23,-0.54, 9.58, 12975
24.69, 101634.98, 0.17,-0.54, 9.58, 12980
24.69, 101634.98, 0.19,-0.50, 9.62, 12985
24.69, 101634.98, 0.31,-0.52, 9.66, 12990
24.69, 101634.98, 0.27,-0.56, 9.64, 12995
24.69, 101634.98, 0.21,-0.48, 9.62, 13000
24.69, 101634.98, 0.17,-0.52, 9.62, 13005
24.69, 101636.69, 0.25,-0.52, 9.54, 13010
24.69, 101636.69, 0.27,-0.63, 9.64, 13015
24.69, 101636.69, 0.27,-0.63, 9.62, 13020
24.69, 101636.69, 0.27,-0.59, 9.56, 13025
24.69, 101636.69, 0.21,-0.57, 9.58, 13030
24.69, 101636.69, 0.21,-0.61, 9.56, 13035
24.69, 101636.69, 0.21,-0.59, 9.50, 13040
24.69, 101637.34, 0.19,-0.57, 9.58, 13045
24.69, 101637.34, 0.23,-0.57, 9.60, 13050
24.69, 101637.34, 0.23,-0.54, 9.58, 13055
24.69, 101637.34, 0.25,-0.59, 9.60, 13060
24.69, 101637.34, 0.21,-0.54, 9.66, 13065
24.69, 101637.34, 0.27,-0.52, 9.66, 13070
24.69, 101637.34, 0.23,-0.61, 9.60, 13075
24.69, 101636.36, 0.15,-0.56, 9.67, 13080
24.69, 101636.36, 0.15,-0.57, 9.56, 13085
24.69, 101636.36, 0.17,-0.59, 9.58, 13090
24.69, 101636.36, 0.29,-0.57, 9.69, 13095
24.69, 101636.36, 0.21,-0.65, 9.66, 13100
24.69, 101636.36, 0.23,-0.57, 9.54, 13105
24.69, 101636.36, 0.15,-0.63, 9.69, 13110
24.69, 101637.83, 0.27,-0.63, 9.73, 13115
24.69, 101637.83, 0.23,-0.63, 9.48, 13120
24.69, 101637.83, 0.25,-0.54, 9.56, 13125
24.69, 101637.83, 0.21,-0.63, 9.67, 13130
24.69, 101637.83, 0.21,-0.67, 9.54, 13135
24.69, 101637.83, 0.23,-0.54, 9.64, 13140
24.69, 101637.83, 0.21,-0.56, 9.66, 13145
24.69, 101637.28, 0.23,-0.59, 9.71, 13150
24.69, 101637.28, 0.19,-0.54, 9.66, 13155
24.69, 101637.28, 0.25,-0.54, 9.60, 13160
24.69, 101637.28, 0.25,-0.59, 9.60, 13165
24.69, 101637.28, 0.19,-0.56, 9.64, 13170
24.69, 101637.28, 0.25,-0.52, 9.60, 13175
24.69, 101637.28, 0.19,-0.57, 9.58, 13180
24.69, 101637.28, 0.17,-0.56, 9.62, 13185
24.69, 101639.92, 0.23,-0.56, 9.69, 13190
24.69, 101639.92, 0.23,-0.59, 9.71, 13195
24.69, 101639.92, 0.19,-0.63, 9.69, 13200
24.69, 101639.92, 0.23,-0.67, 9.69, 13205
24.69, 101639.92, 0.21,-0.61, 9.77, 13210
24.69, 101639.92, 0.23,-0.59, 9.75, 13215
24.69, 101639.92, 0.25,-0.57, 9.62, 13220
24.69, 101636.69, 0.29,-0.57, 9.75, 13225
24.69, 101636.69, 0.25,-0.63, 9.71, 13230
24.69, 101636.69, 0.33,-0.57, 9.62, 13235
24.69, 101636.69, 0.25,-0.54, 9.58, 13240
24.69, 101636.69, 0.27,-0.59, 9.58, 13245
24.69, 101636.69, 0.31,-0.59, 9.58, 13250
24.69, 101636.69, 0.27,-0.61, 9.60, 13255
24.69, 101635.31, 0.27,-0.59, 9.54, 13260
24.69, 101635.31, 0.25,-0.54, 9.50, 13265
24.69, 101635.31, 0.25,-0.56, 9.58, 13270
24.69, 101635.31, 0.21,-0.57, 9.64, 13275
24.69, 101635.31, 0.25,-0.57, 9.64, 13280
24.69, 101635.31, 0.21,-0.57, 9.66, 13285
24.69, 101635.31, 0.31,-0.54, 9.64, 13290
24.69, 101637.77, 0.25,-0.59, 9.67, 13295
24.69, 101637.77, 0.25,-0.56, 9.56, 13300
24.69, 101637.77, 0.21,-0.54, 9.58, 13305
24.69, 101637.77, 0.15,-0.50, 9.67, 13310
24.69, 101637.77, 0.29,-0.52, 9.67, 13315
24.69, 101637.77, 0.21,-0.59, 9.66, 13320
24.69, 101637.77, 0.15,-0.69, 9.73, 13325
24.69, 101634.48, 0.21,-0.61, 9.62, 13330
24.69, 101634.48, 0.21,-0.52, 9.69, 13335
24.69, 101634.48, 0.17,-0.48, 9.62, 13340
24.69, 101634.48, 0.13,-0.50, 9.62, 13345
24.69, 101634.48, 0.31,-0.56, 9.60, 13350
24.69, 101634.48, 0.19,-0.52, 9.60, 13358
24.69, 101634.48, 0.15,-0.56, 9.56, 13362
24.69, 101637.34, 0.13,-0.56, 9.62, 13367
24.69, 101637.34, 0.27,-0.59, 9.66, 13372
24.69, 101637.34, 0.25,-0.57, 9.60, 13377
24.69, 101637.34, 0.25,-0.59, 9.62, 13382
24.69, 101637.34, 0.25,-0.56, 9.58, 13387
24.69, 101637.34, 0.27,-0.61, 9.67, 13392
24.69, 101637.34, 0.23,-0.63, 9.39, 13397
24.69, 101639.09, 0.27,-0.54, 9.58, 13402
24.69, 101639.09, 0.25,-0.44, 9.58, 13407
24.69, 101639.09, 0.27,-0.48, 9.66, 13412
24.69, 101639.09, 0.23,-0.52, 9.48, 13417
24.69, 101639.09, 0.17,-0.57, 9.50, 13422
24.69, 101639.09, 0.27,-0.63, 9.52, 13427
24.69, 101639.09, 0.19,-0.57, 9.52, 13432
24.69, 101640.58, 0.19,-0.61, 9.66, 13437
24.69, 101640.58, 0.23,-0.63, 9.58, 13442
24.69, 101640.58, 0.15,-0.57, 9.56, 13447
24.69, 101640.58, 0.19,-0.61, 9.71, 13452
24.69, 101640.58, 0.21,-0.59, 9.67, 13457
24.69, 101640.58, 0.21,-0.50, 9.64, 13462
24.69, 101640.58, 0.23,-0.54, 9.66, 13467
24.69, 101639.31, 0.19,-0.57, 9.67, 13472
24.69, 101639.31, 0.23,-0.59, 9.66, 13477
24.69, 101639.31, 0.19,-0.54, 9.64, 13482
24.69, 101639.31, 0.25,-0.59, 9.56, 13487
24.69, 101639.31, 0.23,-0.57, 9.66, 13492
24.69, 101639.31, 0.19,-0.56, 9.66, 13497
24.69, 101639.31, 0.27,-0.56, 9.62, 13502
24.69, 101638.17, 0.21,-0.54, 9.54, 13507
24.69, 101638.17, 0.21,-0.59, 9.54, 13512
24.69, 101638.17, 0.23,-0.56, 9.52, 13517
24.69, 101638.17, 0.27,-0.73, 9.71, 13522
24.69, 101638.17, 0.23,-0.65, 9.60, 13527
24.69, 101638.17, 0.23,-0.52, 9.73, 13532
24.69, 101638.17, 0.25,-0.61, 9.69, 13537
24.69, 101638.33, 0.29,-0.50, 9.58, 13542
24.69, 101638.33, 0.17,-0.56, 9.64, 13547
24.69, 101638.33, 0.19,-0.61, 9.66, 13552
24.69, 101638.33, 0.23,-0.56, 9.62, 13557
24.69, 101638.33, 0.23,-0.56, 9.58, 13562
24.69, 101638.33, 0.15,-0.54, 9.67, 13567
24.69, 101638.33, 0.21,-0.59, 9.60, 13572
24.69, 101639.97, 0.19,-0.57, 9.64, 13577
24.69, 101639.97, 0.25,-0.56, 9.64, 13582
24.69, 101639.97, 0.17,-0.54, 9.60, 13587
24.69, 101639.97, 0.21,-0.57, 9.62, 13592
24.69, 101639.97, 0.21,-0.54, 9.64, 13597
24.69, 101639.97, 0.27,-0.54, 9.64, 13602
24.69, 101639.97, 0.19,-0.59, 9.64, 13607
24.69, 101638.43, 0.23,-0.59, 9.58, 13612
24.69, 101638.43, 0.29,-0.63, 9.62, 13617
24.69, 101638.43, 0.33,-0.67, 9.75, 13622
24.69, 101638.43, 0.34,-0.57, 9.56, 13627
24.69, 101638.43, 0.27,-0.59, 9.35, 13632
24.69, 101638.43, 0.23,-0.61, 9.52, 13637
24.69, 101638.43, 0.23,-0.56, 9.58, 13642
24.69, 101638.83, 0.21,-0.54, 9.41, 13647
24.69, 101638.83, 0.23,-0.50, 9.54, 13652
24.69, 101638.83, 0.29,-0.61, 9.58, 13657
24.69, 101638.83, 0.23,-0.54, 9.58, 13662
24.69, 101638.83, 0.25,-0.52, 9.54, 13667
24.69, 101638.83, 0.29,-0.63, 9.58, 13672
24.69, 101638.83, 0.17,-0.50, 9.56, 13677
24.69, 101637.19, 0.15,-0.54, 9.60, 13682
24.69, 101638.09, 0.21,-0.63, 9.58, 13687
24.69, 101638.09, 0.23,-0.56, 9.56, 13692
24.69, 101638.09, 0.23,-0.57, 9.60, 13697
24.69, 101638.09, 0.25,-0.61, 9.66, 13702
24.69, 101638.09, 0.19,-0.61, 9.60, 13707
24.69, 101638.09, 0.23,-0.56, 9.62, 13712
24.69, 101638.09, 0.27,-0.52, 9.66, 13717
24.69, 101639.15, 0.23,-0.59, 9.64, 13722
24.69, 101639.15, 0.23,-0.46, 9.60, 13727
24.69, 101639.15, 0.19,-0.63, 9.54, 13732
24.69, 101639.15, 0.13,-0.61, 9.48, 13737
24.69, 101639.15, 0.19,-0.54, 9.46, 13742
24.69, 101639.15, 0.13,-0.67, 9.67, 13747
24.69, 101639.15, 0.19,-0.59, 9.62, 13752
24.69, 101637.60, 0.17,-0.50, 9.52, 13757
24.69, 101637.60, 0.27,-0.59, 9.54, 13762
24.69, 101637.60, 0.25,-0.69, 9.60, 13767
24.69, 101637.60, 0.23,-0.65, 9.60, 13772
24.69, 101637.60, 0.17,-0.59, 9.66, 13777
24.69, 101637.60, 0.21,-0.44, 9.56, 13782
24.69, 101637.60, 0.19,-0.56, 9.67, 13787
24.69, 101636.36, 0.23,-0.54, 9.60, 13792
24.69, 101636.36, 0.19,-0.56, 9.60, 13797
24.69, 101636.36, 0.25,-0.56, 9.64, 13802
24.69, 101636.36, 0.27,-0.56, 9.58, 13807
24.69, 101636.36, 0.29,-0.54, 9.60, 13812
24.69, 101636.36, 0.27,-0.54, 9.64, 13817
24.69, 101636.36, 0.25,-0.50, 9.64, 13822
24.69, 101640.47, 0.23,-0.54, 9.60, 13827
24.69, 101640.47, 0.23,-0.61, 9.60, 13832
24.69, 101640.47, 0.23,-0.56, 9.64, 13837
24.69, 101640.47, 0.25,-0.52, 9.64, 13842
24.69, 101640.47, 0.23,-0.67, 9.67, 13847
24.69, 101640.47, 0.21,-0.59, 9.48, 13852
24.69, 101637.52, 0.19,-0.54, 9.64, 13862
24.69, 101637.52, 0.15,-0.54, 9.62, 13866
24.69, 101637.52, 0.17,-0.54, 9.64, 13871
24.69, 101637.52, 0.23,-0.57, 9.64, 13876
24.69, 101637.52, 0.29,-0.59, 9.64, 13881
24.69, 101637.52, 0.21,-0.61, 9.66, 13886
24.69, 101637.52, 0.27,-0.57, 9.66, 13891
24.69, 101636.28, 0.21,-0.61, 9.60, 13896
24.69, 101636.28, 0.15,-0.63, 9.60, 13901
24.69, 101636.28, 0.25,-0.57, 9.58, 13906
24.69, 101636.28, 0.29,-0.57, 9.67, 13911
24.69, 101636.28, 0.19,-0.57, 9.73, 13916
24.69, 101636.28, 0.15,-0.59, 9.66, 13921
24.69, 101636.28, 0.23,-0.52, 9.67, 13926
24.69, 101635.79, 0.17,-0.57, 9.60, 13931
24.69, 101635.79, 0.21,-0.61, 9.73, 13936
24.69, 101635.79, 0.27,-0.59, 9.69, 13941
24.69, 101635.79, 0.29,-0.59, 9.60, 13946
24.69, 101635.79, 0.27,-0.61, 9.64, 13951
24.69, 101635.79, 0.19,-0.59, 9.62, 13956
24.69, 101635.79, 0.21,-0.59, 9.66, 13961
24.69, 101639.81, 0.15,-0.54, 9.67, 13966
24.69, 101639.81, 0.23,-0.56, 9.58, 13971
24.69, 101639.81, 0.21,-0.59, 9.64, 13976
24.69, 101639.81, 0.25,-0.59, 9.58, 13981
24.69, 101639.81, 0.25,-0.56, 9.62, 13986
24.69, 101639.81, 0.29,-0.57, 9.66, 13991
24.69, 101639.81, 0.23,-0.61, 9.67, 13996
24.69, 101639.81, 0.25,-0.63, 9.62, 14001
24.69, 101637.77, 0.21,-0.59, 9.64, 14006
24.69, 101637.77, 0.19,-0.61, 9.56, 14011
24.69, 101637.77, 0.21,-0.57, 9.58, 14016
24.69, 101637.77, 0.21,-0.54, 9.75, 14021
24.69, 101637.77, 0.23,-0.52, 9.64, 14026
24.69, 101637.77, 0.23,-0.65, 9.56, 14031
24.69, 101637.77, 0.29,-0.57, 9.75, 14036
24.69, 101637.60, 0.19,-0.59, 9.67, 14041
24.69, 101637.60, 0.25,-0.61, 9.58, 14046
24.69, 101637.60, 0.23,-0.56, 9.50, 14051
24.69, 101637.60, 0.17,-0.54, 9.62, 14056
24.69, 101637.60, 0.27,-0.61, 9.64, 14061
24.69, 101637.60, 0.23,-0.59, 9.58, 14066
24.69, 101637.60, 0.17,-0.54, 9.62, 14071
24.69, 101637.94, 0.21,-0.56, 9.66, 14076
24.69, 101637.94, 0.23,-0.59, 9.64, 14081
24.69, 101637.94, 0.21,-0.59, 9.69, 14086
24.69, 101637.94, 0.15,-0.61, 9.64, 14091
24.69, 101637.94, 0.25,-0.57, 9.66, 14096
24.69, 101637.94, 0.15,-0.61, 9.62, 14101
24.69, 101637.94, 0.19,-0.59, 9.66, 14106
24.69, 101637.34, 0.23,-0.54, 9.62, 14111
24.69, 101637.34, 0.19,-0.63, 9.62, 14116
24.69, 101637.34, 0.11,-0.56, 9.60, 14121
24.69, 101637.34, 0.23,-0.52, 9.62, 14126
24.69, 101637.34, 0.21,-0.54, 9.58, 14131
24.69, 101637.34, 0.23,-0.59, 9.62, 14136
24.69, 101637.34, 0.27,-0.57, 9.64, 14141
24.69, 101637.00, 0.25,-0.57, 9.60, 14146
24.69, 101637.00, 0.19,-0.50, 9.69, 14151
24.69, 101637.00, 0.27,-0.52, 9.66, 14156
24.69, 101637.00, 0.21,-0.57, 9.71, 14161
24.69, 101637.00, 0.27,-0.52, 9.71, 14166
24.69, 101637.00, 0.17,-0.54, 9.66, 14171
24.69, 101637.00, 0.23,-0.52, 9.60, 14176
24.69, 101636.78, 0.19,-0.50, 9.64, 14181
24.69, 101636.78, 0.17,-0.50, 9.62, 14186
24.69, 101636.78, 0.21,-0.56, 9.54, 14191
24.69, 101636.78, 0.23,-0.52, 9.62, 14196
24.69, 101636.78, 0.25,-0.54, 9.66, 14201
24.69, 101636.78, 0.21,-0.57, 9.64, 14206
24.69, 101636.78, 0.15,-0.54, 9.64, 14211
24.69, 101638.09, 0.25,-0.52, 9.60, 14216
24.69, 101638.09, 0.27,-0.52, 9.64, 14221
24.69, 101638.09, 0.19,-0.57, 9.64, 14226
24.69, 101638.09, 0.19,-0.61, 9.60, 14231
24.69, 101638.09, 0.23,-0.63, 9.60, 14236
24.69, 101638.09, 0.11,-0.54, 9.58, 14241
24.69, 101638.09, 0.19,-0.63, 9.66, 14246
24.69, 101637.44, 0.13,-0.56, 9.79, 14251
24.69, 101637.44, 0.17,-0.48, 9.58, 14256
24.69, 101637.44, 0.17,-0.54, 9.73, 14261
24.69, 101637.44, 0.27,-0.54, 9.48, 14266
24.69, 101637.44, 0.19,-0.57, 9.71, 14271
24.69, 101637.44, 0.17,-0.57, 9.67, 14276
24.69, 101637.44, 0.23,-0.63, 9.58, 14281
24.69, 101636.36, 0.27,-0.61, 9.58, 14286
24.69, 101636.36, 0.27,-0.57, 9.58, 14291
24.69, 101636.36, 0.19,-0.57, 9.62, 14296
24.69, 101636.36, 0.19,-0.61, 9.67, 14301
24.69, 101636.36, 0.31,-0.56, 9.66, 14306
24.69, 101636.36, 0.29,-0.54, 9.64, 14311
24.69, 101636.36, 0.27,-0.56, 9.66, 14316
24.69, 101637.11, 0.23,-0.54, 9.56, 14321
24.69, 101637.11, 0.17,-0.59, 9.60, 14326
24.69, 101637.11, 0.23,-0.59, 9.64, 14331
24.69, 101637.11, 0.21,-0.57, 9.56, 14336
24.69, 101637.11, 0.17,-0.57, 9.66, 14341
24.69, 101637.11, 0.23,-0.54, 9.62, 14346
24.69, 101637.11, 0.15,-0.50, 9.69, 14351
24.69, 101636.85, 0.21,-0.57, 9.62, 14356
24.69, 101636.85, 0.19,-0.57, 9.64, 14364
24.69, 101636.85, 0.23,-0.65, 9.46, 14369
24.69, 101636.85, 0.27,-0.63, 9.52, 14373
24.69, 101636.85, 0.21,-0.59, 9.56, 14378
24.69, 101636.85, 0.21,-0.56, 9.62, 14383
24.69, 101636.85, 0.27,-0.57, 9.62, 14388
24.69, 101638.09, 0.11,-0.57, 9.67, 14393
24.69, 101638.09, 0.17,-0.52, 9.71, 14398
24.69, 101638.09, 0.27,-0.52, 9.64, 14403
24.69, 101638.09, 0.21,-0.59, 9.62, 14408
24.69, 101638.09, 0.23,-0.54, 9.64, 14413
24.69, 101638.09, 0.19,-0.57, 9.64, 14418
24.69, 101638.09, 0.25,-0.59, 9.64, 14423
24.69, 101635.80, 0.23,-0.57, 9.60, 14428
24.69, 101635.80, 0.23,-0.56, 9.69, 14433
24.69, 101635.80, 0.17,-0.48, 9.66, 14438
24.69, 101635.80, 0.17,-0.63, 9.60, 14443
24.69, 101635.80, 0.17,-0.61, 9.50, 14448
24.69, 101635.80, 0.21,-0.54, 9.62, 14453
24.69, 101635.80, 0.27,-0.54, 9.56, 14458
24.69, 101639.92, 0.31,-0.57, 9.62, 14463
24.69, 101639.92, 0.27,-0.59, 9.58, 14468
24.69, 101639.92, 0.21,-0.56, 9.60, 14473
24.69, 101639.92, 0.23,-0.56, 9.58, 14478
24.69, 101639.92, 0.29,-0.61, 9.60, 14483
24.69, 101639.92, 0.19,-0.50, 9.64, 14488
24.69, 101639.92, 0.21,-0.57, 9.60, 14493
24.69, 101638.48, 0.19,-0.59, 9.54, 14498
24.69, 101638.48, 0.23,-0.56, 9.58, 14503
24.69, 101638.48, 0.23,-0.57, 9.62, 14508
24.69, 101638.48, 0.15,-0.61, 9.64, 14513
24.69, 101638.48, 0.25,-0.54, 9.67, 14518
24.69, 101638.48, 0.23,-0.56, 9.60, 14523
24.69, 101638.48, 0.25,-0.52, 9.58, 14528
24.69, 101638.48, 0.27,-0.56, 9.66, 14533
24.69, 101637.44, 0.25,-0.54, 9.64, 14538
24.69, 101637.44, 0.25,-0.59, 9.67, 14543
24.69, 101637.44, 0.23,-0.56, 9.56, 14548
24.69, 101637.44, 0.17,-0.54, 9.56, 14553
24.69, 101637.44, 0.29,-0.59, 9.60, 14558
24.69, 101637.44, 0.29,-0.63, 9.41, 14563
24.69, 101637.44, 0.23,-0.59, 9.56, 14568
24.69, 101639.20, 0.15,-0.54, 9.64, 14573
24.69, 101639.20, 0.25,-0.61, 9.46, 14578
24.69, 101639.20, 0.21,-0.61, 9.69, 14583
24.69, 101639.20, 0.17,-0.59, 9.66, 14588
24.69, 101639.20, 0.17,-0.57, 9.60, 14593
24.69, 101639.20, 0.23,-0.59, 9.62, 14598
24.69, 101639.20, 0.25,-0.56, 9.62, 14603
24.69, 101637.94, 0.25,-0.59, 9.66, 14608
24.69, 101637.94, 0.25,-0.54, 9.58, 14613
24.69, 101637.94, 0.19,-0.59, 9.56, 14618
24.69, 101637.94, 0.17,-0.54, 9.64, 14623
24.69, 101637.94, 0.17,-0.54, 9.62, 14628
24.69, 101637.94, 0.23,-0.57, 9.60, 14633
24.69, 101637.94, 0.21,-0.65, 9.60, 14638
24.69, 101636.95, 0.27,-0.65, 9.60, 14643
24.69, 101636.95, 0.27,-0.59, 9.62, 14648
24.69, 101636.95, 0.19,-0.59, 9.73, 14653
24.69, 101636.95, 0.27,-0.57, 9.64, 14658
24.69, 101636.95, 0.19,-0.52, 9.73, 14663
24.69, 101636.95, 0.25,-0.57, 9.58, 14668
24.69, 101636.95, 0.13,-0.57, 9.56, 14673
24.69, 101637.44, 0.19,-0.52, 9.33, 14678
24.69, 101637.44, 0.19,-0.61, 9.67, 14683
24.69, 101637.44, 0.21,-0.59, 9.67, 14688
24.69, 101637.44, 0.19,-0.63, 9.64, 14693
24.69, 101637.44, 0.25,-0.50, 9.62, 14698
24.69, 101637.44, 0.23,-0.61, 9.67, 14703
24.69, 101637.44, 0.21,-0.56, 9.67, 14708
24.69, 101636.62, 0.21,-0.63, 9.58, 14713
24.69, 101636.62, 0.21,-0.69, 9.66, 14718
24.69, 101636.62, 0.25,-0.61, 9.71, 14723
24.69, 101636.62, 0.23,-0.54, 9.66, 14728
24.69, 101636.62, 0.15,-0.57, 9.60, 14733
24.69, 101636.62, 0.27,-0.57, 9.60, 14738
24.69, 101636.62, 0.31,-0.56, 9.66, 14743
24.69, 101636.95, 0.23,-0.59, 9.67, 14748
24.69, 101636.95, 0.25,-0.57, 9.66, 14753
24.69, 101636.95, 0.19,-0.56, 9.58, 14758
24.69, 101636.95, 0.23,-0.54, 9.62, 14763
24.69, 101636.95, 0.23,-0.61, 9.54, 14768
24.69, 101636.95, 0.29,-0.57, 9.56, 14773
24.69, 101636.95, 0.27,-0.61, 9.66, 14778
24.69, 101637.50, 0.21,-0.63, 9.62, 14783
24.69, 101637.50, 0.17,-0.57, 9.66, 14788
24.69, 101637.50, 0.21,-0.63, 9.58, 14793
24.69, 101637.50, 0.23,-0.56, 9.54, 14798
24.69, 101637.50, 0.23,-0.52, 9.67, 14803
24.69, 101637.50, 0.29,-0.56, 9.50, 14808
24.69, 101637.50, 0.25,-0.61, 9.58, 14813
24.69, 101640.63, 0.23,-0.54, 9.58, 14818
24.69, 101640.63, 0.25,-0.59, 9.60, 14823
24.69, 101640.63, 0.27,-0.61, 9.58, 14828
24.69, 101640.63, 0.25,-0.61, 9.54, 14833
24.69, 101640.63, 0.23,-0.59, 9.66, 14838
24.69, 101640.63, 0.27,-0.69, 9.67, 14843
24.69, 101640.63, 0.25,-0.59, 9.66, 14848
24.69, 101640.58, 0.25,-0.59, 9.60, 14853
24.69, 101640.58, 0.23,-0.57, 9.67, 14858
24.69, 101640.58, 0.23,-0.54, 9.58, 14872
24.69, 101640.58, 0.23,-0.54, 9.62, 14876
24.69, 101640.58, 0.21,-0.54, 9.66, 14881
24.69, 101640.58, 0.25,-0.54, 9.60, 14886
24.69, 101640.24, 0.25,-0.59, 9.66, 14891
24.69, 101640.24, 0.25,-0.59, 9.62, 14896
24.69, 101640.24, 0.23,-0.52, 9.60, 14901
24.69, 101640.24, 0.23,-0.57, 9.58, 14906
24.69, 101640.24, 0.21,-0.61, 9.50, 14911
24.69, 101640.24, 0.29,-0.52, 9.66, 14916
24.69, 101640.24, 0.29,-0.61, 9.66, 14921
24.69, 101641.30, 0.23,-0.59, 9.54, 14926
24.69, 101641.30, 0.23,-0.69, 9.56, 14931
24.69, 101641.30, 0.27,-0.63, 9.71, 14936
24.69, 101641.30, 0.19,-0.57, 9.83, 14941
24.69, 101641.30, 0.21,-0.61, 9.69, 14946
24.69, 101641.30, 0.29,-0.57, 9.66, 14951
24.69, 101641.30, 0.29,-0.61, 9.54, 14956
24.69, 101636.95, 0.29,-0.59, 9.52, 14961
24.69, 101636.95, 0.19,-0.57, 9.62, 14966
24.69, 101636.95, 0.25,-0.61, 9.58, 14971
24.69, 101636.95, 0.27,-0.59, 9.58, 14976
24.69, 101636.95, 0.33,-0.57, 9.58, 14981
24.69, 101636.95, 0.21,-0.61, 9.60, 14986
24.69, 101636.95, 0.19,-0.57, 9.66, 14991
24.69, 101638.98, 0.21,-0.57, 9.62, 14996
24.69, 101638.98, 0.19,-0.57, 9.69, 15001
24.69, 101638.98, 0.19,-0.54, 9.64, 15006
24.72, 101639.05, 0.17,-0.59, 9.48, 15085
24.72, 101639.05, 0.19,-0.63, 9.58, 15089
24.72, 101639.05, 0.21,-0.57, 9.58, 15094
24.72, 101639.05, 0.23,-0.57, 9.62, 15099
24.72, 101639.31, 0.19,-0.59, 9.62, 15104
24.72, 101639.31, 0.21,-0.59, 9.62, 15109
24.72, 101639.31, 0.19,-0.59, 9.62, 15114
24.72, 101639.31, 0.17,-0.56, 9.60, 15119
24.72, 101639.31, 0.21,-0.57, 9.54, 15124
24.72, 101639.31, 0.19,-0.59, 9.60, 15129
24.72, 101639.31, 0.23,-0.56, 9.62, 15134
24.72, 101640.59, 0.21,-0.54, 9.56, 15139
24.72, 101640.59, 0.19,-0.57, 9.46, 15144
24.72, 101640.59, 0.25,-0.52, 9.66, 15149
24.72, 101640.59, 0.21,-0.61, 9.58, 15154
24.72, 101640.59, 0.25,-0.52, 9.62, 15159
24.72, 101640.59, 0.29,-0.61, 9.69, 15164
24.72, 101640.59, 0.27,-0.65, 9.87, 15169
24.72, 101639.15, 0.27,-0.59, 9.77, 15174
24.72, 101639.15, 0.27,-0.56, 9.69, 15179
24.72, 101639.15, 0.21,-0.54, 9.75, 15184
24.72, 101639.15, 0.21,-0.63, 9.58, 15189
24.72, 101639.15, 0.29,-0.56, 9.56, 15194
24.72, 101639.15, 0.27,-0.59, 9.54, 15199
24.72, 101639.15, 0.21,-0.57, 9.58, 15204
24.72, 101640.86, 0.19,-0.61, 9.58, 15209
24.72, 101640.86, 0.21,-0.63, 9.62, 15214
24.72, 101640.86, 0.25,-0.56, 9.62, 15219
24.72, 101640.86, 0.27,-0.54, 9.62, 15224
24.72, 101640.86, 0.19,-0.59, 9.62, 15229
24.72, 101640.86, 0.17,-0.61, 9.58, 15234
24.72, 101640.86, 0.17,-0.59, 9.66, 15239
24.72, 101641.69, 0.17,-0.57, 9.58, 15244
24.72, 101641.69, 0.19,-0.57, 9.66, 15249
24.72, 101641.69, 0.23,-0.57, 9.50, 15254
24.72, 101641.69, 0.21,-0.57, 9.54, 15259
24.72, 101641.69, 0.25,-0.57, 9.60, 15264
24.72, 101641.69, 0.21,-0.57, 9.71, 15269
24.72, 101641.69, 0.33,-0.65, 9.87, 15274
24.72, 101641.62, 0.31,-0.59, 9.83, 15279
24.72, 101641.62, 0.23,-0.56, 9.64, 15284
24.72, 101641.62, 0.25,-0.59, 9.75, 15289
24.72, 101641.62, 0.27,-0.59, 9.71, 15294
24.72, 101641.62, 0.23,-0.63, 9.77, 15299
24.72, 101641.62, 0.25,-0.65, 9.62, 15304
24.72, 101641.62, 0.21,-0.59, 9.66, 15309
24.72, 101638.66, 0.31,-0.57, 9.58, 15314
24.72, 101638.66, 0.31,-0.59, 9.60, 15319
24.72, 101638.66, 0.27,-0.63, 9.62, 15324
24.72, 101638.66, 0.27,-0.57, 9.66, 15329
24.72, 101638.66, 0.25,-0.56, 9.60, 15334
24.72, 101638.66, 0.23,-0.54, 9.66, 15339
24.72, 101638.66, 0.19,-0.56, 9.66, 15344
24.72, 101638.66, 0.29,-0.59, 9.64, 15349
24.72, 101640.14, 0.29,-0.57, 9.62, 15354
24.72, 101640.14, 0.23,-0.56, 9.67, 15359
24.72, 101640.14, 0.25,-0.54, 9.73, 15364
24.72, 101640.14, 0.23,-0.54, 9.48, 15369
24.72, 101640.14, 0.25,-0.52, 9.56, 15374
24.72, 101640.14, 0.27,-0.52, 9.52, 15379
24.72, 101640.14, 0.21,-0.61, 9.54, 15384
24.72, 101639.42, 0.21,-0.63, 9.50, 15389
24.72, 101639.42, 0.25,-0.59, 9.54, 15394
24.72, 101639.42, 0.25,-0.54, 9.75, 15399
24.72, 101639.42, 0.23,-0.56, 9.66, 15404
24.72, 101639.42, 0.23,-0.61, 9.58, 15409
24.72, 101639.42, 0.29,-0.52, 9.62, 15414
24.72, 101639.42, 0.23,-0.54, 9.58, 15419
24.72, 101639.31, 0.21,-0.54, 9.66, 15424
24.72, 101639.31, 0.23,-0.57, 9.60, 15429
24.72, 101639.31, 0.19,-0.59, 9.64, 15434
24.72, 101639.31, 0.15,-0.57, 9.56, 15439
24.72, 101639.31, 0.25,-0.57, 9.62, 15447
24.72, 101639.31, 0.27,-0.56, 9.62, 15451
24.72, 101639.20, 0.23,-0.54, 9.79, 15456
24.72, 101639.20, 0.19,-0.56, 9.71, 15461
24.72, 101639.20, 0.23,-0.59, 9.66, 15466
24.72, 101639.20, 0.23,-0.63, 9.54, 15471
24.72, 101639.20, 0.33,-0.57, 9.71, 15476
24.72, 101639.20, 0.17,-0.48, 9.45, 15481
24.72, 101639.20, 0.23,-0.54, 9.50, 15486
24.72, 101639.20, 0.23,-0.56, 9.60, 15491
24.72, 101642.00, 0.19,-0.48, 9.58, 15496
24.72, 101642.00, 0.17,-0.48, 9.60, 15501
24.72, 101642.00, 0.25,-0.67, 9.64, 15506
24.72, 101642.00, 0.23,-0.63, 9.62, 15511
24.72, 101642.00, 0.21,-0.57, 9.67, 15516
24.72, 101642.00, 0.21,-0.61, 9.58, 15521
24.72, 101642.00, 0.29,-0.61, 9.66, 15526
24.72, 101640.91, 0.29,-0.56, 9.67, 15531
24.72, 101640.91, 0.25,-0.57, 9.66, 15536
24.72, 101640.91, 0.23,-0.59, 9.58, 15541
24.72, 101640.91, 0.21,-0.59, 9.66, 15546
24.72, 101640.91, 0.21,-0.54, 9.54, 15551
24.72, 101640.91, 0.17,-0.65, 9.64, 15556
24.72, 101640.91, 0.19,-0.59, 9.66, 15561
24.72, 101641.91, 0.23,-0.61, 9.62, 15566
24.72, 101641.91, 0.23,-0.57, 9.64, 15571
24.72, 101641.91, 0.15,-0.63, 9.66, 15576
24.72, 101641.91, 0.21,-0.50, 9.67, 15581
24.72, 101641.91, 0.25,-0.57, 9.67, 15586
24.72, 101641.91, 0.17,-0.61, 9.64, 15591
24.72, 101641.91, 0.21,-0.61, 9.64, 15596
24.72, 101638.98, 0.21,-0.61, 9.52, 15601
24.72, 101638.98, 0.29,-0.59, 9.25, 15606
24.72, 101638.98, 0.21,-0.61, 9.56, 15611
24.72, 101638.98, 0.19,-0.59, 9.62, 15616
24.72, 101638.98, 0.25,-0.54, 9.69, 15621
24.72, 101638.98, 0.25,-0.56, 9.71, 15626
24.72, 101638.98, 0.27,-0.61, 9.69, 15631
24.72, 101639.97, 0.27,-0.57, 9.62, 15636
24.72, 101639.97, 0.27,-0.56, 9.60, 15641
24.72, 101639.97, 0.29,-0.57, 9.60, 15646
24.72, 101639.97, 0.21,-0.57, 9.62, 15651
24.72, 101639.97, 0.27,-0.63, 9.67, 15656
24.72, 101639.97, 0.31,-0.57, 9.67, 15661
24.72, 101639.97, 0.19,-0.56, 9.64, 15666
24.72, 101640.86, 0.19,-0.61, 9.60, 15671
24.72, 101640.86, 0.19,-0.63, 9.60, 15676
24.72, 101640.86, 0.15,-0.56, 9.67, 15681
24.72, 101640.86, 0.25,-0.56, 9.69, 15686
24.72, 101640.86, 0.23,-0.59, 9.58, 15691
24.72, 101640.86, 0.21,-0.57, 9.48, 15696
24.72, 101640.86, 0.21,-0.50, 9.60, 15701
24.72, 101643.22, 0.23,-0.57, 9.83, 15706
24.72, 101643.22, 0.25,-0.59, 9.67, 15711
24.72, 101643.22, 0.19,-0.61, 9.58, 15716
24.72, 101643.22, 0.19,-0.61, 9.62, 15721
24.72, 101643.22, 0.19,-0.61, 9.64, 15726
24.72, 101643.22, 0.21,-0.65, 9.45, 15731
24.72, 101643.22, 0.23,-0.61, 9.54, 15736
24.72, 101638.77, 0.19,-0.65, 9.64, 15741
24.72, 101638.77, 0.25,-0.59, 9.62, 15746
24.72, 101638.77, 0.21,-0.54, 9.58, 15751
24.72, 101638.77, 0.21,-0.54, 9.62, 15756
24.72, 101638.77, 0.23,-0.57, 9.64, 15761
24.72, 101638.77, 0.19,-0.63, 9.62, 15766
24.72, 101638.77, 0.27,-0.57, 9.62, 15771
24.72, 101640.30, 0.21,-0.59, 9.62, 15776
24.72, 101640.30, 0.19,-0.59, 9.67, 15781
24.72, 101640.30, 0.19,-0.59, 9.64, 15786
24.72, 101640.30, 0.13,-0.59, 9.50, 15791
24.72, 101640.30, 0.21,-0.56, 9.62, 15796
24.72, 101640.30, 0.23,-0.52, 9.75, 15801
24.72, 101640.30, 0.25,-0.54, 9.73, 15806
24.72, 101641.50, 0.27,-0.54, 9.73, 15811
24.72, 101641.50, 0.15,-0.61, 9.58, 15816
24.72, 101641.50, 0.25,-0.57, 9.60, 15821
24.72, 101641.50, 0.21,-0.52, 9.77, 15826
24.72, 101641.50, 0.23,-0.61, 9.69, 15831
24.72, 101641.50, 0.25,-0.59, 9.67, 15836
24.72, 101641.50, 0.25,-0.57, 9.71, 15841
24.72, 101640.69, 0.29,-0.59, 9.60, 15846
24.72, 101640.69, 0.31,-0.57, 9.60, 15851
24.72, 101640.69, 0.29,-0.50, 9.60, 15856
24.72, 101640.69, 0.25,-0.56, 9.58, 15861
24.72, 101640.69, 0.21,-0.59, 9.64, 15866
24.72, 101640.69, 0.23,-0.54, 9.58, 15871
24.72, 101640.69, 0.29,-0.54, 9.69, 15876
24.72, 101640.69, 0.33,-0.54, 9.66, 15881
24.72, 101643.88, 0.29,-0.56, 9.62, 15886
24.72, 101643.88, 0.27,-0.65, 9.64, 15891
24.72, 101643.88, 0.29,-0.52, 9.66, 15896
24.72, 101643.88, 0.31,-0.50, 9.67, 15901
24.72, 101643.88, 0.27,-0.61, 9.48, 15906
24.72, 101643.88, 0.23,-0.63, 9.48, 15911
24.72, 101643.88, 0.25,-0.59, 9.64, 15916
24.72, 101640.86, 0.29,-0.50, 9.75, 15921
24.72, 101640.86, 0.29,-0.50, 9.73, 15926
24.72, 101640.86, 0.29,-0.52, 9.48, 15931
24.72, 101640.86, 0.25,-0.56, 9.60, 15936
24.72, 101640.86, 0.33,-0.56, 9.58, 15941
24.72, 101640.86, 0.21,-0.56, 9.64, 15949
24.72, 101640.03, 0.17,-0.56, 9.64, 15953
24.72, 101640.03, 0.19,-0.63, 9.60, 15958
24.72, 101640.03, 0.11,-0.59, 9.64, 15963
24.72, 101640.03, 0.17,-0.61, 9.66, 15968
24.72, 101640.03, 0.17,-0.57, 9.62, 15973
24.72, 101640.03, 0.21,-0.54, 9.64, 15978
24.72, 101640.03, 0.17,-0.59, 9.66, 15983
24.72, 101641.12, 0.21,-0.63, 9.77, 15988
24.72, 101641.12, 0.13,-0.59, 9.60, 15994
24.72, 101641.12, 0.13,-0.63, 9.54, 15998
24.72, 101641.12, 0.17,-0.57, 9.46, 16003
24.72, 101641.12, 0.19,-0.52, 9.54, 16009
24.72, 101641.12, 0.11,-0.57, 9.52, 16013
24.72, 101641.12, 0.19,-0.54, 9.62, 16018
24.72, 101641.12, 0.17,-0.57, 9.58, 16023
24.72, 101641.67, 0.23,-0.61, 9.46, 16028
24.72, 101641.67, 0.29,-0.59, 9.54, 16033
24.72, 101641.67, 0.25,-0.57, 9.56, 16038
24.72, 101641.67, 0.19,-0.57, 9.54, 16043
24.72, 101641.67, 0.21,-0.54, 9.64, 16048
24.72, 101641.67, 0.25,-0.57, 9.69, 16053
24.72, 101641.67, 0.23,-0.52, 9.69, 16058
24.72, 101639.15, 0.21,-0.50, 9.62, 16063
24.72, 101639.15, 0.25,-0.56, 9.60, 16068
24.72, 101639.15, 0.31,-0.56, 9.60, 16073
24.72, 101639.15, 0.21,-0.59, 9.56, 16078
24.72, 101639.15, 0.25,-0.57, 9.60, 16083
24.72, 101639.15, 0.23,-0.56, 9.64, 16088
24.72, 101639.15, 0.23,-0.65, 9.62, 16093
24.72, 101643.48, 0.21,-0.65, 9.62, 16098
24.72, 101643.48, 0.27,-0.56, 9.67, 16103
24.72, 101643.48, 0.31,-0.50, 9.75, 16108
24.72, 101643.48, 0.21,-0.57, 9.58, 16113
24.72, 101643.48, 0.21,-0.48, 9.56, 16118
24.72, 101643.48, 0.25,-0.57, 9.79, 16123
24.72, 101643.48, 0.23,-0.59, 9.81, 16128
24.72, 101639.54, 0.19,-0.59, 9.62, 16133
24.72, 101639.54, 0.19,-0.61, 9.64, 16138
24.72, 101639.54, 0.23,-0.59, 9.60, 16143
24.72, 101639.54, 0.15,-0.57, 9.48, 16148
24.72, 101639.54, 0.19,-0.57, 9.52, 16153
24.72, 101639.54, 0.19,-0.52, 9.52, 16158
24.72, 101639.54, 0.19,-0.61, 9.64, 16163
24.72, 101641.69, 0.15,-0.63, 9.64, 16168
24.72, 101641.69, 0.19,-0.57, 9.69, 16173
24.72, 101641.69, 0.17,-0.59, 9.64, 16178
24.72, 101641.69, 0.15,-0.54, 9.62, 16183
24.72, 101641.69, 0.19,-0.56, 9.58, 16188
24.72, 101641.69, 0.21,-0.63, 9.69, 16193
24.72, 101641.69, 0.23,-0.57, 9.66, 16198
24.72, 101638.77, 0.17,-0.56, 9.62, 16203
24.72, 101638.77, 0.25,-0.50, 9.60, 16208
24.72, 101638.77, 0.19,-0.54, 9.62, 16213
24.72, 101638.77, 0.17,-0.57, 9.66, 16218
24.72, 101638.77, 0.21,-0.52, 9.48, 16223
24.72, 101638.77, 0.21,-0.52, 9.58, 16228
24.72, 101638.77, 0.31,-0.65, 9.58, 16233
24.72, 101638.71, 0.19,-0.65, 9.60, 16238
24.72, 101638.71, 0.29,-0.65, 9.75, 16243
24.72, 101638.71, 0.29,-0.56, 9.73, 16248
24.72, 101638.71, 0.36,-0.54, 9.67, 16253
24.72, 101638.71, 0.31,-0.50, 9.64, 16258
24.72, 101638.71, 0.33,-0.56, 9.69, 16263
24.72, 101638.71, 0.29,-0.56, 9.56, 16268
24.72, 101640.42, 0.33,-0.56, 9.62, 16273
24.72, 101640.42, 0.36,-0.56, 9.60, 16278
24.72, 101640.42, 0.36,-0.56, 9.67, 16283
24.72, 101640.42, 0.34,-0.54, 9.67, 16288
24.72, 101640.42, 0.38,-0.56, 9.69, 16293
24.72, 101640.42, 0.31,-0.59, 9.64, 16298
24.72, 101640.42, 0.27,-0.61, 9.64, 16303
24.72, 101640.53, 0.19,-0.56, 9.66, 16308
24.72, 101640.53, 0.27,-0.56, 9.71, 16313
24.72, 101640.53, 0.23,-0.61, 9.60, 16318
24.72, 101640.53, 0.21,-0.61, 9.54, 16323
24.72, 101640.53, 0.27,-0.57, 9.58, 16328
24.72, 101640.53, 0.27,-0.69, 9.75, 16333
24.72, 101640.53, 0.25,-0.59, 9.50, 16338
24.72, 101640.20, 0.19,-0.52, 9.69, 16343
24.72, 101640.20, 0.19,-0.57, 9.60, 16348
24.72, 101640.20, 0.13,-0.57, 9.52, 16353
24.72, 101640.20, 0.13,-0.61, 9.56, 16358
24.72, 101640.20, 0.10,-0.57, 9.58, 16363
24.72, 101640.20, 0.15,-0.61, 9.56, 16368
24.72, 101640.20, 0.11,-0.61, 9.56, 16373
24.72, 101640.20, 0.15,-0.59, 9.71, 16378
24.72, 101639.38, 0.17,-0.57, 9.73, 16383
24.72, 101639.38, 0.10,-0.59, 9.60, 16388
24.72, 101639.38, 0.11,-0.54, 9.60, 16393
24.72, 101639.38, 0.10,-0.56, 9.62, 16398
24.72, 101639.38, 0.19,-0.56, 9.62, 16403
24.72, 101639.38, 0.15,-0.57, 9.58, 16408
24.72, 101639.38, 0.17,-0.52, 9.64, 16413
24.72, 101640.91, 0.19,-0.61, 9.67, 16418
24.72, 101640.91, 0.29,-0.61, 9.64, 16423
24.72, 101640.91, 0.27,-0.57, 9.60, 16428
24.72, 101640.91, 0.25,-0.59, 9.67, 16433
24.72, 101640.91, 0.23,-0.52, 9.62, 16438
24.72, 101640.91, 0.25,-0.59, 9.48, 16443
24.72, 101642.00, 0.23,-0.59, 9.73, 16451
24.72, 101642.00, 0.19,-0.59, 9.71, 16455
24.72, 101642.00, 0.23,-0.54, 9.69, 16460
24.72, 101642.00, 0.25,-0.59, 9.58, 16465
24.72, 101642.00, 0.21,-0.50, 9.67, 16470
24.72, 101642.00, 0.33,-0.56, 9.64, 16475
24.72, 101642.00, 0.34,-0.59, 9.58, 16480
24.72, 101640.42, 0.34,-0.56, 9.66, 16485
24.72, 101640.42, 0.27,-0.54, 9.66, 16490
24.72, 101640.42, 0.27,-0.52, 9.64, 16495
24.72, 101640.42, 0.29,-0.54, 9.60, 16500
24.72, 101640.42, 0.27,-0.52, 9.64, 16505
24.72, 101640.42, 0.29,-0.54, 9.67, 16510
24.72, 101640.42, 0.29,-0.57, 9.67, 16515
24.72, 101640.42, 0.33,-0.57, 9.64, 16520
24.72, 101640.59, 0.29,-0.65, 9.58, 16525
24.72, 101640.59, 0.25,-0.61, 9.66, 16530
24.72, 101640.59, 0.29,-0.50, 9.66, 16535
24.72, 101640.59, 0.25,-0.59, 9.75, 16540
24.72, 101640.59, 0.21,-0.54, 9.71, 16545
24.72, 101640.59, 0.27,-0.56, 9.71, 16550
24.72, 101640.59, 0.15,-0.56, 9.69, 16555
24.72, 101641.73, 0.19,-0.50, 9.71, 16560
24.72, 101641.73, 0.23,-0.54, 9.64, 16565
24.72, 101641.73, 0.29,-0.54, 9.66, 16570
24.72, 101641.73, 0.17,-0.57, 9.71, 16575
24.72, 101641.73, 0.15,-0.56, 9.73, 16580
24.72, 101641.73, 0.17,-0.57, 9.62, 16585
24.72, 101641.73, 0.23,-0.57, 9.54, 16590
24.72, 101639.05, 0.11,-0.61, 9.60, 16595
24.72, 101639.05, 0.21,-0.54, 9.58, 16600
24.72, 101639.05, 0.21,-0.52, 9.62, 16605
24.72, 101639.05, 0.13,-0.54, 9.64, 16610
24.72, 101639.05, 0.15,-0.61, 9.58, 16615
24.72, 101639.05, 0.23,-0.65, 9.64, 16620
24.72, 101639.05, 0.23,-0.57, 9.66, 16625
24.72, 101639.85, 0.23,-0.63, 9.67, 16630
24.72, 101639.85, 0.19,-0.56, 9.62, 16635
24.72, 101639.85, 0.25,-0.50, 9.58, 16640
24.72, 101639.85, 0.36,-0.56, 9.67, 16645
24.72, 101639.85, 0.21,-0.52, 9.60, 16650
24.72, 101639.85, 0.21,-0.56, 9.48, 16655
24.72, 101639.85, 0.23,-0.57, 9.64, 16660
24.72, 101639.05, 0.23,-0.57, 9.64, 16665
24.72, 101639.05, 0.25,-0.61, 9.66, 16670
24.72, 101639.05, 0.34,-0.59, 9.71, 16675
24.72, 101639.05, 0.27,-0.56, 9.60, 16680
24.72, 101639.05, 0.29,-0.59, 9.56, 16685
24.72, 101639.05, 0.33,-0.52, 9.60, 16690
24.72, 101639.05, 0.33,-0.54, 9.62, 16695
24.72, 101636.67, 0.34,-0.57, 9.58, 16700
24.72, 101636.67, 0.17,-0.56, 9.62, 16705
24.72, 101636.67, 0.25,-0.61, 9.64, 16710
24.72, 101636.67, 0.19,-0.56, 9.64, 16715
24.72, 101636.67, 0.29,-0.56, 9.64, 16720
24.72, 101636.67, 0.27,-0.59, 9.67, 16725
24.72, 101636.67, 0.23,-0.59, 9.67, 16730
24.72, 101638.55, 0.25,-0.63, 9.67, 16735
24.72, 101638.55, 0.21,-0.57, 9.64, 16740
24.72, 101638.55, 0.21,-0.56, 9.60, 16745
24.72, 101638.55, 0.11,-0.61, 9.58, 16750
24.72, 101638.55, 0.15,-0.65, 9.60, 16755
24.72, 101638.55, 0.21,-0.57, 9.62, 16760
24.72, 101638.55, 0.25,-0.57, 9.56, 16765
24.72, 101638.94, 0.27,-0.57, 9.37, 16770
24.72, 101638.94, 0.23,-0.67, 9.48, 16775
24.72, 101638.94, 0.27,-0.34, 9.58, 16780
24.72, 101638.94, 0.25,-0.50, 9.54, 16785
24.72, 101638.94, 0.25,-0.57, 9.71, 16790
24.72, 101638.94, 0.29,-0.57, 9.69, 16795
24.72, 101638.94, 0.29,-0.56, 9.64, 16800
24.72, 101636.41, 0.23,-0.50, 9.58, 16805
24.72, 101636.41, 0.27,-0.56, 9.69, 16810
24.72, 101636.41, 0.25,-0.61, 9.71, 16815
24.72, 101636.41, 0.27,-0.57, 9.66, 16820
24.72, 101636.41, 0.25,-0.57, 9.71, 16825
24.72, 101636.41, 0.27,-0.59, 9.52, 16830
24.72, 101636.41, 0.17,-0.52, 9.62, 16835
24.72, 101638.94, 0.21,-0.52, 9.62, 16840
24.72, 101638.94, 0.29,-0.56, 9.69, 16845
24.72, 101638.94, 0.29,-0.54, 9.66, 16850
24.72, 101638.94, 0.29,-0.54, 9.60, 16855
24.72, 101638.94, 0.19,-0.50, 9.62, 16860
24.72, 101638.94, 0.23,-0.52, 9.60, 16865
24.72, 101638.94, 0.21,-0.57, 9.75, 16870
24.72, 101640.91, 0.23,-0.59, 9.58, 16875
24.72, 101640.91, 0.23,-0.63, 9.69, 16880
24.72, 101640.91, 0.17,-0.63, 9.56, 16885
24.72, 101640.91, 0.21,-0.57, 9.75, 16890
24.72, 101640.91, 0.25,-0.59, 9.41, 16895
24.72, 101640.91, 0.23,-0.57, 9.67, 16900
24.72, 101640.91, 0.11,-0.57, 9.56, 16905
24.72, 101640.91, 0.21,-0.56, 9.56, 16910
24.72, 101637.78, 0.29,-0.54, 9.60, 16915
24.72, 101637.78, 0.21,-0.57, 9.62, 16920
24.72, 101637.78, 0.25,-0.59, 9.64, 16925
24.72, 101637.78, 0.25,-0.63, 9.62, 16930
24.72, 101637.78, 0.21,-0.57, 9.60, 16935
24.72, 101637.78, 0.21,-0.61, 9.67, 16940
24.72, 101637.78, 0.27,-0.61, 9.69, 16945
24.72, 101637.21, 0.31,-0.61, 9.62, 16953
24.72, 101637.21, 0.31,-0.57, 9.56, 16957
24.72, 101637.21, 0.19,-0.57, 9.52, 16962
24.72, 101637.21, 0.17,-0.61, 9.66, 16967
24.72, 101637.21, 0.21,-0.63, 9.62, 16972
24.72, 101637.21, 0.21,-0.59, 9.48, 16977
24.72, 101636.55, 0.19,-0.69, 9.64, 16982
24.72, 101636.55, 0.17,-0.57, 9.67, 16987
24.72, 101636.55, 0.21,-0.57, 9.67, 16992
24.72, 101636.55, 0.23,-0.54, 9.60, 16997
24.72, 101636.55, 0.25,-0.59, 9.56, 17002
24.72, 101636.55, 0.29,-0.57, 9.62, 17007
24.72, 101636.55, 0.19,-0.50, 9.67, 17012
24.72, 101637.28, 0.19,-0.61, 9.64, 17017
24.72, 101637.28, 0.19,-0.61, 9.62, 17022
24.72, 101637.28, 0.23,-0.61, 9.69, 17027
24.72, 101637.28, 0.19,-0.57, 9.69, 17032
24.72, 101637.28, 0.23,-0.57, 9.69, 17037
24.72, 101637.28, 0.23,-0.56, 9.66, 17042
24.72, 101637.28, 0.29,-0.54, 9.66, 17047
24.72, 101637.28, 0.27,-0.57, 9.64, 17052
24.72, 101641.23, 0.25,-0.56, 9.60, 17057
24.72, 101641.23, 0.23,-0.52, 9.58, 17062
24.72, 101641.23, 0.21,-0.57, 9.62, 17067
24.72, 101641.23, 0.31,-0.54, 9.66, 17072
24.72, 101641.23, 0.17,-0.61, 9.62, 17077
24.72, 101641.23, 0.21,-0.57, 9.71, 17082
24.72, 101641.23, 0.29,-0.54, 9.77, 17087
24.72, 101637.70, 0.21,-0.59, 9.58, 17092
24.72, 101637.70, 0.23,-0.59, 9.46, 17097
24.72, 101637.70, 0.25,-0.59, 9.85, 17102
24.72, 101637.70, 0.33,-0.61, 9.62, 17107
24.72, 101637.70, 0.33,-0.56, 9.81, 17112
24.72, 101637.70, 0.23,-0.56, 9.75, 17117
24.72, 101637.70, 0.27,-0.52, 9.69, 17122
24.72, 101636.56, 0.27,-0.57, 9.62, 17127
24.72, 101636.56, 0.29,-0.59, 9.58, 17132
24.72, 101636.56, 0.21,-0.54, 9.56, 17137
24.72, 101636.56, 0.11,-0.56, 9.67, 17142
24.72, 101636.56, 0.25,-0.59, 9.62, 17147
24.72, 101636.56, 0.17,-0.54, 9.60, 17152
24.72, 101636.56, 0.21,-0.57, 9.62, 17157
24.72, 101637.70, 0.23,-0.57, 9.64, 17162
24.72, 101637.70, 0.25,-0.56, 9.69, 17167
24.72, 101637.70, 0.27,-0.54, 9.64, 17172
24.72, 101637.70, 0.27,-0.59, 9.67, 17177
24.72, 101637.70, 0.21,-0.61, 9.71, 17182
24.72, 101637.70, 0.25,-0.54, 9.66, 17187
24.72, 101637.70, 0.23,-0.52, 9.66, 17192
24.72, 101636.45, 0.27,-0.57, 9.67, 17197
24.72, 101636.45, 0.27,-0.59, 9.69, 17202
24.72, 101636.45, 0.19,-0.54, 9.56, 17207
24.72, 101636.45, 0.29,-0.52, 9.58, 17212
24.72, 101636.45, 0.33,-0.54, 9.64, 17217
24.72, 101636.45, 0.25,-0.50, 9.54, 17222
24.72, 101636.45, 0.29,-0.59, 9.62, 17227
24.72, 101636.94, 0.21,-0.56, 9.60, 17232
24.72, 101636.94, 0.29,-0.57, 9.48, 17237
24.72, 101636.94, 0.29,-0.57, 9.52, 17242
24.72, 101636.94, 0.21,-0.61, 9.54, 17247
24.72, 101636.94, 0.23,-0.59, 9.62, 17252
24.72, 101636.94, 0.19,-0.56, 9.69, 17257
24.72, 101636.94, 0.17,-0.59, 9.67, 17262
24.72, 101634.25, 0.23,-0.65, 9.67, 17267
24.72, 101634.25, 0.15,-0.61, 9.64, 17272
24.72, 101634.25, 0.19,-0.63, 9.66, 17277
24.72, 101634.25, 0.17,-0.61, 9.62, 17282
24.72, 101634.25, 0.25,-0.65, 9.60, 17287
24.72, 101634.25, 0.19,-0.61, 9.56, 17292
24.72, 101634.25, 0.19,-0.57, 9.56, 17297
24.72, 101635.47, 0.27,-0.57, 9.60, 17302
24.72, 101635.47, 0.27,-0.52, 9.64, 17307
24.72, 101635.47, 0.25,-0.59, 9.64, 17312
24.72, 101635.47, 0.25,-0.57, 9.67, 17317
24.72, 101635.47, 0.23,-0.57, 9.58, 17322
24.72, 101635.47, 0.15,-0.57, 9.60, 17327
24.72, 101635.47, 0.25,-0.57, 9.23, 17332
24.72, 101633.92, 0.15,-0.52, 9.56, 17337
24.72, 101633.92, 0.15,-0.54, 9.56, 17342
24.72, 101633.92, 0.29,-0.44, 9.58, 17347
24.72, 101633.92, 0.15,-0.63, 9.56, 17352
24.72, 101633.92, 0.29,-0.54, 9.62, 17357
24.72, 101633.92, 0.19,-0.50, 9.64, 17362
24.72, 101633.92, 0.25,-0.52, 9.56, 17367
24.72, 101637.21, 0.29,-0.57, 9.66, 17372
24.72, 101637.21, 0.29,-0.59, 9.58, 17377
24.72, 101637.21, 0.27,-0.56, 9.60, 17382
