External Temperature (C), Barometric Pressure (Pa), Acceleration X, Acceleration Y, Acceleration Z
25.06, 101639.58, 0.25,-0.59, 9.62, 737
25.06, 101639.58, 0.23,-0.54, 9.64, 747
25.06, 101638.66, 0.19,-0.54, 9.75, 752
25.06, 101638.66, 0.21,-0.56, 9.58, 757
25.06, 101638.66, 0.17,-0.61, 9.56, 762
25.06, 101638.66, 0.21,-0.57, 9.62, 767
25.06, 101638.66, 0.17,-0.57, 9.67, 772
25.06, 101638.66, 0.23,-0.56, 9.64, 777
25.06, 101638.66, 0.15,-0.56, 9.66, 782
25.06, 101642.05, 0.17,-0.56, 9.62, 787
25.06, 101642.05, 0.27,-0.54, 9.58, 792
25.06, 101642.05, 0.27,-0.56, 9.60, 797
25.06, 101642.05, 0.21,-0.57, 9.66, 802
25.06, 101642.05, 0.23,-0.57, 9.48, 807
25.06, 101642.05, 0.29,-0.46, 9.60, 812
25.06, 101642.05, 0.25,-0.59, 9.66, 817
25.06, 101641.38, 0.27,-0.59, 9.60, 822
25.06, 101641.38, 0.21,-0.61, 9.75, 827
25.06, 101641.38, 0.19,-0.59, 9.71, 832
25.06, 101641.38, 0.21,-0.61, 9.81, 837
25.06, 101641.38, 0.17,-0.56, 9.69, 842
25.06, 101641.38, 0.27,-0.54, 9.66, 847
25.06, 101641.38, 0.23,-0.56, 9.56, 852
25.06, 101642.88, 0.23,-0.54, 9.64, 857
25.06, 101642.88, 0.29,-0.63, 9.64, 862
25.06, 101642.88, 0.17,-0.57, 9.60, 867
25.06, 101642.88, 0.23,-0.57, 9.60, 872
25.06, 101642.88, 0.15,-0.50, 9.60, 877
25.06, 101642.88, 0.19,-0.54, 9.67, 882
25.06, 101642.88, 0.19,-0.56, 9.67, 887
25.06, 101641.72, 0.21,-0.50, 9.67, 892
25.06, 101641.72, 0.19,-0.52, 9.67, 897
25.06, 101641.72, 0.23,-0.52, 9.66, 902
25.06, 101641.72, 0.23,-0.50, 9.60, 907
25.06, 101641.72, 0.21,-0.52, 9.62, 912
25.06, 101641.72, 0.36,-0.48, 9.66, 917
25.06, 101641.72, 0.33,-0.59, 9.77, 922
25.06, 101641.62, 0.29,-0.56, 9.81, 927
25.06, 101641.62, 0.29,-0.67, 9.62, 932
25.06, 101641.62, 0.21,-0.61, 9.56, 937
25.06, 101641.62, 0.17,-0.59, 9.48, 942
25.06, 101641.62, 0.33,-0.52, 9.58, 947
25.06, 101641.62, 0.25,-0.56, 9.73, 952
25.06, 101641.62, 0.31,-0.56, 9.69, 957
25.06, 101641.62, 0.31,-0.54, 9.60, 962
25.06, 101642.27, 0.31,-0.57, 9.58, 967
25.06, 101642.27, 0.25,-0.59, 9.56, 972
25.06, 101642.27, 0.29,-0.56, 9.54, 977
25.06, 101642.27, 0.31,-0.52, 9.62, 982
25.06, 101642.27, 0.27,-0.52, 9.58, 987
25.06, 101642.27, 0.29,-0.52, 9.64, 992
25.06, 101642.27, 0.34,-0.50, 9.66, 997
25.06, 101642.55, 0.25,-0.54, 9.60, 1002
25.06, 101642.55, 0.19,-0.57, 9.64, 1007
25.06, 101642.55, 0.25,-0.57, 9.60, 1012
25.06, 101642.55, 0.17,-0.56, 9.62, 1017
25.06, 101642.55, 0.17,-0.57, 9.64, 1022
25.06, 101642.55, 0.17,-0.54, 9.56, 1027
25.06, 101642.55, 0.19,-0.56, 9.58, 1032
25.06, 101641.38, 0.15,-0.57, 9.50, 1037
25.06, 101641.38, 0.17,-0.50, 9.66, 1042
25.06, 101641.38, 0.17,-0.52, 9.73, 1047
25.06, 101641.38, 0.23,-0.54, 9.60, 1052
25.06, 101641.38, 0.23,-0.50, 9.60, 1057
25.06, 101641.38, 0.13,-0.52, 9.62, 1062
25.06, 101641.38, 0.13,-0.50, 9.60, 1067
25.06, 101640.14, 0.25,-0.56, 9.60, 1072
25.06, 101640.14, 0.19,-0.56, 9.48, 1077
25.06, 101640.14, 0.21,-0.56, 9.62, 1082
25.06, 101640.14, 0.25,-0.52, 9.56, 1087
25.06, 101640.14, 0.21,-0.52, 9.69, 1092
25.06, 101640.14, 0.21,-0.57, 9.69, 1097
25.06, 101640.14, 0.23,-0.52, 9.66, 1102
25.06, 101639.81, 0.25,-0.57, 9.67, 1107
25.06, 101639.81, 0.25,-0.56, 9.67, 1112
25.06, 101639.81, 0.23,-0.54, 9.62, 1117
25.06, 101639.81, 0.21,-0.52, 9.66, 1122
25.06, 101639.81, 0.31,-0.56, 9.56, 1127
25.06, 101639.81, 0.31,-0.50, 9.64, 1132
25.06, 101639.81, 0.27,-0.54, 9.58, 1137
25.06, 101642.78, 0.27,-0.52, 9.60, 1142
25.06, 101642.78, 0.25,-0.50, 9.56, 1147
25.06, 101642.78, 0.29,-0.57, 9.54, 1152
25.06, 101642.78, 0.23,-0.59, 9.69, 1157
25.06, 101642.78, 0.21,-0.63, 9.89, 1162
25.06, 101642.78, 0.19,-0.54, 9.62, 1167
25.06, 101642.78, 0.21,-0.56, 9.79, 1172
25.06, 101641.88, 0.21,-0.59, 9.77, 1177
25.06, 101641.88, 0.17,-0.63, 9.73, 1182
25.06, 101641.88, 0.27,-0.61, 9.60, 1187
25.06, 101641.88, 0.25,-0.59, 9.58, 1192
25.06, 101641.88, 0.17,-0.59, 9.58, 1197
25.06, 101641.88, 0.23,-0.52, 9.58, 1202
25.06, 101641.88, 0.19,-0.61, 9.54, 1207
25.06, 101641.12, 0.25,-0.54, 9.60, 1212
25.06, 101641.12, 0.15,-0.56, 9.64, 1217
25.06, 101641.12, 0.19,-0.63, 9.64, 1222
25.06, 101641.12, 0.19,-0.59, 9.69, 1227
25.06, 101641.12, 0.25,-0.57, 9.62, 1232
25.06, 101641.12, 0.25,-0.54, 9.64, 1237
25.06, 101641.12, 0.29,-0.57, 9.66, 1242
25.06, 101642.70, 0.27,-0.63, 9.64, 1250
25.06, 101642.70, 0.21,-0.59, 9.81, 1254
25.06, 101642.70, 0.23,-0.57, 9.79, 1259
25.06, 101642.70, 0.29,-0.54, 9.71, 1264
25.06, 101642.70, 0.25,-0.59, 9.64, 1269
25.06, 101642.70, 0.31,-0.57, 9.66, 1274
25.06, 101642.70, 0.17,-0.54, 9.64, 1279
25.06, 101640.78, 0.25,-0.52, 9.67, 1284
25.06, 101640.78, 0.23,-0.54, 9.62, 1289
25.06, 101640.78, 0.25,-0.54, 9.62, 1294
25.06, 101640.78, 0.25,-0.54, 9.62, 1299
25.06, 101640.78, 0.17,-0.56, 9.66, 1304
25.06, 101640.78, 0.15,-0.56, 9.67, 1309
25.06, 101640.78, 0.19,-0.57, 9.66, 1314
25.06, 101639.41, 0.21,-0.59, 9.66, 1319
25.06, 101639.41, 0.19,-0.54, 9.64, 1324
25.06, 101639.41, 0.17,-0.59, 9.66, 1329
25.06, 101639.41, 0.25,-0.52, 9.60, 1334
25.06, 101639.41, 0.19,-0.56, 9.66, 1339
25.06, 101639.41, 0.19,-0.67, 9.62, 1344
25.06, 101639.41, 0.27,-0.54, 9.64, 1349
25.06, 101641.94, 0.21,-0.63, 9.83, 1354
25.06, 101641.94, 0.23,-0.67, 9.71, 1359
25.06, 101641.94, 0.21,-0.57, 9.52, 1364
25.06, 101641.94, 0.31,-0.59, 9.58, 1369
25.06, 101641.94, 0.25,-0.57, 9.56, 1374
25.06, 101641.94, 0.34,-0.59, 9.60, 1379
25.06, 101641.94, 0.21,-0.52, 9.62, 1384
25.06, 101643.53, 0.25,-0.63, 9.58, 1389
25.06, 101643.53, 0.21,-0.59, 9.62, 1394
25.06, 101643.53, 0.19,-0.59, 9.66, 1399
25.06, 101643.53, 0.27,-0.59, 9.66, 1404
25.06, 101643.53, 0.21,-0.54, 9.67, 1409
25.06, 101643.53, 0.29,-0.50, 9.67, 1414
25.06, 101643.53, 0.27,-0.56, 9.58, 1419
25.06, 101643.31, 0.23,-0.57, 9.66, 1424
25.06, 101643.31, 0.23,-0.61, 9.66, 1429
25.06, 101643.31, 0.25,-0.57, 9.66, 1434
25.06, 101643.31, 0.25,-0.54, 9.69, 1439
25.06, 101643.31, 0.25,-0.56, 9.69, 1444
25.06, 101643.31, 0.21,-0.54, 9.69, 1449
25.06, 101643.31, 0.15,-0.61, 9.64, 1454
25.06, 101643.31, 0.19,-0.56, 9.60, 1459
25.06, 101638.98, 0.25,-0.52, 9.62, 1464
25.06, 101638.98, 0.17,-0.50, 9.52, 1469
25.06, 101638.98, 0.19,-0.56, 9.45, 1474
25.06, 101638.98, 0.15,-0.59, 9.67, 1479
25.06, 101638.98, 0.17,-0.54, 9.60, 1484
25.06, 101638.98, 0.17,-0.54, 9.64, 1489
25.06, 101638.98, 0.23,-0.59, 9.60, 1494
25.06, 101642.98, 0.29,-0.65, 9.62, 1499
25.06, 101642.98, 0.31,-0.57, 9.62, 1504
25.06, 101642.98, 0.21,-0.59, 9.62, 1509
25.06, 101642.98, 0.25,-0.61, 9.66, 1514
25.06, 101642.98, 0.23,-0.59, 9.71, 1519
25.06, 101642.98, 0.21,-0.57, 9.66, 1524
25.06, 101642.98, 0.23,-0.57, 9.62, 1529
25.06, 101639.15, 0.21,-0.56, 9.62, 1534
25.06, 101639.15, 0.23,-0.52, 9.64, 1539
25.06, 101639.15, 0.17,-0.52, 9.62, 1544
25.06, 101639.15, 0.19,-0.54, 9.66, 1549
25.06, 101639.15, 0.25,-0.57, 9.67, 1554
25.06, 101639.15, 0.25,-0.61, 9.67, 1559
25.06, 101639.15, 0.29,-0.61, 9.66, 1564
25.06, 101639.95, 0.23,-0.54, 9.58, 1569
25.06, 101639.95, 0.27,-0.56, 9.60, 1574
25.06, 101639.95, 0.27,-0.56, 9.62, 1579
25.06, 101639.95, 0.19,-0.56, 9.60, 1584
25.06, 101639.95, 0.19,-0.48, 9.54, 1589
25.06, 101639.95, 0.29,-0.54, 9.67, 1594
25.06, 101639.95, 0.29,-0.57, 9.71, 1599
25.06, 101638.98, 0.27,-0.61, 9.73, 1604
25.06, 101638.98, 0.19,-0.54, 9.66, 1609
25.06, 101638.98, 0.23,-0.56, 9.64, 1614
25.06, 101638.98, 0.17,-0.56, 9.64, 1619
25.06, 101638.98, 0.15,-0.48, 9.60, 1624
25.06, 101638.98, 0.13,-0.50, 9.67, 1629
25.06, 101638.98, 0.23,-0.59, 9.64, 1634
25.06, 101642.21, 0.29,-0.52, 9.60, 1639
25.06, 101642.21, 0.25,-0.48, 9.58, 1644
25.06, 101642.21, 0.19,-0.52, 9.58, 1649
25.06, 101642.21, 0.19,-0.52, 9.69, 1654
25.06, 101642.21, 0.27,-0.52, 9.64, 1659
25.06, 101642.21, 0.23,-0.56, 9.62, 1664
25.06, 101642.21, 0.25,-0.56, 9.62, 1669
25.06, 101641.28, 0.27,-0.54, 9.62, 1674
25.06, 101641.28, 0.25,-0.54, 9.62, 1679
25.06, 101641.28, 0.21,-0.57, 9.60, 1684
25.06, 101641.28, 0.29,-0.56, 9.62, 1689
25.06, 101641.28, 0.21,-0.57, 9.62, 1694
25.06, 101641.28, 0.21,-0.52, 9.73, 1699
25.06, 101641.28, 0.21,-0.40, 9.58, 1704
25.06, 101638.32, 0.23,-0.54, 9.46, 1709
25.06, 101638.32, 0.27,-0.54, 9.67, 1714
25.06, 101638.32, 0.23,-0.56, 9.62, 1719
25.06, 101638.32, 0.25,-0.52, 9.62, 1724
25.06, 101638.32, 0.17,-0.61, 9.58, 1729
25.06, 101638.32, 0.19,-0.54, 9.67, 1734
25.06, 101638.32, 0.23,-0.57, 9.66, 1739
25.06, 101640.02, 0.29,-0.52, 9.64, 1744
25.06, 101640.02, 0.29,-0.54, 9.67, 1752
25.06, 101640.02, 0.31,-0.56, 9.67, 1756
25.06, 101640.02, 0.25,-0.57, 9.62, 1761
25.06, 101640.02, 0.23,-0.57, 9.60, 1766
25.06, 101640.02, 0.29,-0.56, 9.66, 1771
25.06, 101640.02, 0.27,-0.59, 9.58, 1776
25.06, 101638.16, 0.27,-0.46, 9.62, 1781
25.06, 101638.16, 0.25,-0.59, 9.60, 1786
25.06, 101638.16, 0.27,-0.56, 9.56, 1791
25.06, 101638.16, 0.29,-0.54, 9.73, 1796
25.06, 101638.16, 0.27,-0.48, 9.67, 1801
25.06, 101638.16, 0.21,-0.50, 9.66, 1806
25.06, 101638.16, 0.21,-0.56, 9.67, 1811
25.06, 101638.91, 0.17,-0.59, 9.64, 1816
25.06, 101638.91, 0.25,-0.54, 9.64, 1821
25.06, 101638.91, 0.21,-0.67, 9.64, 1826
25.06, 101638.91, 0.13,-0.61, 9.64, 1831
25.06, 101638.91, 0.15,-0.54, 9.73, 1836
25.06, 101638.91, 0.11,-0.59, 9.75, 1841
25.06, 101638.91, 0.19,-0.57, 9.67, 1846
25.06, 101640.45, 0.13,-0.59, 9.60, 1851
25.06, 101640.45, 0.19,-0.59, 9.67, 1856
25.06, 101640.45, 0.17,-0.54, 9.64, 1861
25.06, 101640.45, 0.17,-0.59, 9.69, 1866
25.06, 101640.45, 0.23,-0.59, 9.62, 1871
25.06, 101640.45, 0.17,-0.59, 9.69, 1876
25.06, 101640.45, 0.21,-0.56, 9.66, 1881
25.06, 101639.91, 0.25,-0.56, 9.71, 1886
25.06, 101639.91, 0.25,-0.57, 9.66, 1891
25.06, 101639.91, 0.19,-0.61, 9.60, 1896
25.06, 101639.91, 0.25,-0.52, 9.60, 1901
25.06, 101639.91, 0.27,-0.48, 9.56, 1906
25.06, 101639.91, 0.27,-0.54, 9.66, 1911
25.06, 101639.91, 0.27,-0.56, 9.66, 1916
25.06, 101639.73, 0.27,-0.52, 9.62, 1921
25.06, 101639.73, 0.29,-0.56, 9.45, 1926
25.06, 101639.73, 0.27,-0.52, 9.52, 1931
25.06, 101639.73, 0.34,-0.56, 9.58, 1936
25.06, 101639.73, 0.25,-0.54, 9.64, 1941
25.06, 101639.73, 0.29,-0.56, 9.64, 1946
25.06, 101639.73, 0.27,-0.57, 9.62, 1951
25.06, 101639.73, 0.23,-0.59, 9.56, 1956
25.06, 101641.61, 0.27,-0.52, 9.60, 1961
25.06, 101641.61, 0.15,-0.48, 9.64, 1966
25.06, 101641.61, 0.25,-0.50, 9.58, 1971
25.06, 101641.61, 0.21,-0.52, 9.62, 1976
25.06, 101641.61, 0.27,-0.54, 9.54, 1981
25.06, 101641.61, 0.21,-0.63, 9.66, 1986
25.06, 101641.61, 0.27,-0.59, 9.60, 1991
25.06, 101638.98, 0.21,-0.50, 9.62, 1996
25.06, 101638.98, 0.27,-0.50, 9.66, 2001
25.06, 101638.98, 0.19,-0.52, 9.69, 2006
25.06, 101638.98, 0.17,-0.56, 9.52, 2011
25.06, 101638.98, 0.15,-0.59, 9.67, 2016
25.06, 101638.98, 0.17,-0.57, 9.54, 2021
25.06, 101638.98, 0.23,-0.61, 9.66, 2026
25.06, 101640.89, 0.17,-0.57, 9.79, 2031
25.06, 101640.89, 0.31,-0.57, 9.64, 2036
25.06, 101640.89, 0.31,-0.57, 9.64, 2041
25.06, 101640.89, 0.19,-0.56, 9.64, 2046
25.06, 101640.89, 0.23,-0.57, 9.62, 2051
25.06, 101640.89, 0.25,-0.57, 9.69, 2056
25.06, 101640.89, 0.23,-0.57, 9.71, 2061
25.06, 101639.80, 0.21,-0.59, 9.54, 2066
25.06, 101639.80, 0.21,-0.56, 9.64, 2071
25.06, 101639.80, 0.23,-0.63, 9.69, 2076
25.06, 101639.80, 0.21,-0.56, 9.66, 2081
25.06, 101639.80, 0.27,-0.52, 9.64, 2086
25.06, 101639.80, 0.23,-0.50, 9.66, 2091
25.06, 101639.80, 0.27,-0.52, 9.66, 2096
25.06, 101641.28, 0.25,-0.54, 9.64, 2101
25.06, 101641.28, 0.27,-0.56, 9.60, 2106
25.06, 101641.28, 0.23,-0.56, 9.58, 2111
25.06, 101641.28, 0.25,-0.56, 9.64, 2116
25.06, 101641.28, 0.27,-0.57, 9.58, 2121
25.06, 101641.28, 0.33,-0.56, 9.67, 2126
25.06, 101641.28, 0.33,-0.48, 9.58, 2131
25.06, 101639.91, 0.23,-0.52, 9.41, 2136
25.06, 101639.91, 0.21,-0.52, 9.52, 2141
25.06, 101639.91, 0.19,-0.54, 9.75, 2146
25.06, 101639.91, 0.27,-0.54, 9.64, 2151
25.06, 101639.91, 0.19,-0.56, 9.50, 2156
25.06, 101639.91, 0.21,-0.52, 9.60, 2161
25.06, 101639.91, 0.19,-0.56, 9.58, 2166
25.06, 101642.59, 0.19,-0.65, 9.62, 2171
25.06, 101642.59, 0.29,-0.59, 9.52, 2176
25.06, 101642.59, 0.23,-0.56, 9.60, 2181
25.06, 101642.59, 0.17,-0.59, 9.66, 2186
25.06, 101642.59, 0.21,-0.56, 9.66, 2191
25.06, 101642.59, 0.27,-0.50, 9.64, 2196
25.06, 101642.59, 0.25,-0.48, 9.64, 2201
25.06, 101639.81, 0.25,-0.56, 9.64, 2206
25.06, 101639.81, 0.19,-0.48, 9.60, 2211
25.06, 101639.81, 0.23,-0.54, 9.69, 2216
25.06, 101639.81, 0.21,-0.59, 9.66, 2221
25.06, 101639.81, 0.21,-0.57, 9.69, 2226
25.06, 101639.81, 0.17,-0.57, 9.60, 2231
25.06, 101639.81, 0.15,-0.59, 9.71, 2236
25.06, 101641.05, 0.19,-0.54, 9.56, 2241
25.06, 101641.05, 0.21,-0.48, 9.66, 2246
25.06, 101641.05, 0.19,-0.56, 9.77, 2254
25.06, 101641.05, 0.21,-0.59, 9.71, 2258
25.06, 101641.05, 0.21,-0.52, 9.67, 2263
25.06, 101641.05, 0.27,-0.48, 9.64, 2268
25.06, 101641.05, 0.25,-0.56, 9.66, 2273
25.06, 101640.12, 0.21,-0.59, 9.69, 2278
25.06, 101640.12, 0.21,-0.57, 9.67, 2283
25.06, 101640.12, 0.23,-0.57, 9.66, 2288
25.06, 101640.12, 0.17,-0.50, 9.64, 2293
25.06, 101640.12, 0.17,-0.56, 9.62, 2298
25.06, 101640.12, 0.21,-0.54, 9.56, 2303
25.06, 101640.12, 0.19,-0.54, 9.64, 2308
25.06, 101642.44, 0.19,-0.59, 9.66, 2313
25.06, 101642.44, 0.21,-0.52, 9.66, 2318
25.06, 101642.44, 0.23,-0.54, 9.64, 2323
25.06, 101642.44, 0.19,-0.57, 9.54, 2328
25.06, 101642.44, 0.15,-0.54, 9.43, 2333
25.06, 101642.44, 0.23,-0.57, 9.66, 2338
25.06, 101642.44, 0.23,-0.52, 9.75, 2343
25.06, 101641.77, 0.15,-0.56, 9.71, 2348
25.06, 101641.77, 0.23,-0.57, 9.60, 2353
25.06, 101641.77, 0.25,-0.56, 9.62, 2358
25.06, 101641.77, 0.25,-0.56, 9.67, 2363
25.06, 101641.77, 0.25,-0.56, 9.58, 2368
25.06, 101641.77, 0.25,-0.56, 9.60, 2373
25.06, 101641.77, 0.31,-0.54, 9.56, 2378
25.06, 101640.96, 0.23,-0.54, 9.58, 2383
25.06, 101640.96, 0.23,-0.54, 9.62, 2388
25.06, 101640.96, 0.25,-0.52, 9.60, 2393
25.06, 101640.96, 0.29,-0.61, 9.60, 2398
25.06, 101640.96, 0.25,-0.56, 9.60, 2403
25.06, 101640.96, 0.21,-0.52, 9.54, 2408
25.06, 101640.96, 0.23,-0.54, 9.60, 2413
25.06, 101641.45, 0.19,-0.52, 9.62, 2418
25.06, 101641.45, 0.27,-0.52, 9.58, 2423
25.06, 101641.45, 0.21,-0.56, 9.62, 2428
25.06, 101641.45, 0.13,-0.59, 9.62, 2433
25.06, 101641.45, 0.17,-0.52, 9.71, 2438
25.06, 101641.45, 0.27,-0.52, 9.60, 2443
25.06, 101641.45, 0.23,-0.52, 9.71, 2448
25.06, 101641.45, 0.21,-0.59, 9.45, 2453
25.06, 101640.96, 0.25,-0.57, 9.56, 2458
25.06, 101640.96, 0.27,-0.54, 9.69, 2463
25.06, 101640.96, 0.23,-0.61, 9.62, 2468
25.06, 101640.96, 0.23,-0.59, 9.62, 2473
25.06, 101640.96, 0.23,-0.56, 9.62, 2478
25.06, 101640.96, 0.25,-0.44, 9.58, 2483
25.06, 101640.96, 0.29,-0.52, 9.60, 2488
25.06, 101643.11, 0.29,-0.57, 9.60, 2493
25.06, 101643.11, 0.21,-0.56, 9.60, 2498
25.06, 101643.11, 0.21,-0.57, 9.67, 2503
25.06, 101643.11, 0.23,-0.56, 9.66, 2508
25.06, 101643.11, 0.25,-0.56, 9.62, 2513
25.06, 101643.11, 0.23,-0.52, 9.64, 2518
25.06, 101643.11, 0.25,-0.52, 9.60, 2523
25.06, 101639.81, 0.29,-0.54, 9.62, 2528
25.06, 101639.81, 0.27,-0.56, 9.62, 2533
25.06, 101639.81, 0.21,-0.52, 9.60, 2538
25.06, 101639.81, 0.27,-0.56, 9.60, 2543
25.06, 101639.81, 0.19,-0.59, 9.46, 2548
25.06, 101639.81, 0.25,-0.54, 9.73, 2553
25.06, 101639.81, 0.21,-0.52, 9.64, 2558
25.06, 101641.62, 0.21,-0.54, 9.41, 2563
25.06, 101641.62, 0.21,-0.57, 9.77, 2568
25.06, 101641.62, 0.15,-0.56, 9.62, 2573
25.06, 101641.62, 0.23,-0.48, 9.48, 2578
25.06, 101641.62, 0.19,-0.48, 9.54, 2583
25.06, 101641.62, 0.33,-0.59, 9.58, 2588
25.06, 101641.62, 0.21,-0.57, 9.60, 2593
25.06, 101641.95, 0.23,-0.56, 9.66, 2598
25.06, 101641.95, 0.27,-0.57, 9.67, 2603
25.06, 101641.95, 0.27,-0.57, 9.67, 2608
25.06, 101641.95, 0.31,-0.56, 9.71, 2613
25.06, 101641.95, 0.27,-0.52, 9.69, 2618
25.06, 101641.95, 0.27,-0.57, 9.66, 2623
25.06, 101641.95, 0.29,-0.50, 9.64, 2628
25.06, 101639.25, 0.27,-0.59, 9.66, 2633
25.06, 101639.25, 0.27,-0.52, 9.64, 2638
25.06, 101639.25, 0.25,-0.46, 9.60, 2643
25.06, 101639.25, 0.25,-0.54, 9.66, 2648
25.06, 101639.25, 0.31,-0.54, 9.62, 2653
25.06, 101639.25, 0.19,-0.56, 9.64, 2658
25.06, 101639.25, 0.27,-0.54, 9.66, 2663
25.06, 101638.81, 0.23,-0.59, 9.58, 2668
25.06, 101638.81, 0.17,-0.54, 9.67, 2673
25.06, 101638.81, 0.21,-0.56, 9.66, 2678
25.06, 101638.81, 0.23,-0.59, 9.67, 2683
25.06, 101638.81, 0.23,-0.57, 9.62, 2688
25.06, 101638.81, 0.19,-0.59, 9.71, 2693
25.06, 101638.81, 0.27,-0.52, 9.66, 2698
25.06, 101637.72, 0.29,-0.52, 9.66, 2703
25.06, 101637.72, 0.25,-0.63, 9.67, 2708
25.06, 101637.72, 0.21,-0.59, 9.66, 2713
25.06, 101637.72, 0.21,-0.59, 9.62, 2718
25.06, 101637.72, 0.23,-0.57, 9.64, 2723
25.06, 101637.72, 0.25,-0.57, 9.64, 2728
25.06, 101637.72, 0.15,-0.59, 9.67, 2733
25.06, 101638.20, 0.17,-0.59, 9.67, 2738
25.06, 101638.20, 0.17,-0.57, 9.64, 2743
25.06, 101638.20, 0.19,-0.54, 9.66, 2748
25.06, 101638.20, 0.21,-0.59, 9.71, 2756
25.06, 101638.20, 0.21,-0.57, 9.62, 2761
25.06, 101638.20, 0.23,-0.40, 9.62, 2765
25.06, 101638.20, 0.21,-0.52, 9.73, 2770
25.06, 101640.58, 0.23,-0.52, 9.60, 2775
25.06, 101640.58, 0.13,-0.54, 9.71, 2780
25.06, 101640.58, 0.23,-0.59, 9.67, 2785
25.06, 101640.58, 0.25,-0.54, 9.69, 2790
25.06, 101640.58, 0.25,-0.54, 9.64, 2795
25.06, 101640.58, 0.23,-0.52, 9.66, 2800
25.06, 101640.58, 0.23,-0.56, 9.69, 2805
25.06, 101642.72, 0.23,-0.52, 9.60, 2810
25.06, 101642.72, 0.25,-0.56, 9.69, 2815
25.06, 101642.72, 0.27,-0.54, 9.66, 2820
25.06, 101642.72, 0.23,-0.59, 9.69, 2825
25.06, 101642.72, 0.27,-0.50, 9.64, 2830
25.06, 101642.72, 0.23,-0.54, 9.67, 2835
25.06, 101642.72, 0.17,-0.46, 9.62, 2840
25.06, 101640.84, 0.25,-0.56, 9.60, 2845
25.06, 101640.84, 0.19,-0.57, 9.67, 2850
25.06, 101640.84, 0.17,-0.54, 9.62, 2855
25.06, 101640.84, 0.21,-0.56, 9.66, 2860
25.06, 101640.84, 0.25,-0.56, 9.58, 2865
25.06, 101640.84, 0.27,-0.63, 9.66, 2870
25.06, 101640.84, 0.31,-0.59, 9.75, 2875
25.06, 101640.62, 0.25,-0.54, 9.52, 2880
25.06, 101640.62, 0.11,-0.54, 9.64, 2885
25.06, 101640.62, 0.21,-0.46, 9.64, 2890
25.06, 101640.62, 0.21,-0.57, 9.77, 2895
25.06, 101640.62, 0.23,-0.63, 9.71, 2900
25.06, 101640.62, 0.19,-0.59, 9.64, 2905
25.06, 101640.62, 0.23,-0.52, 9.54, 2910
25.06, 101640.30, 0.19,-0.54, 9.58, 2915
25.06, 101640.30, 0.21,-0.57, 9.58, 2920
25.06, 101640.30, 0.11,-0.52, 9.52, 2925
25.06, 101640.30, 0.17,-0.54, 9.60, 2930
25.06, 101640.30, 0.25,-0.57, 9.56, 2935
25.06, 101640.30, 0.25,-0.61, 9.54, 2940
25.06, 101640.30, 0.25,-0.61, 9.67, 2945
25.06, 101642.28, 0.21,-0.61, 9.73, 2950
25.06, 101642.28, 0.27,-0.57, 9.79, 2955
25.06, 101642.28, 0.38,-0.56, 9.81, 2960
25.06, 101642.28, 0.34,-0.56, 9.79, 2965
25.06, 101642.28, 0.33,-0.54, 9.75, 2970
25.06, 101642.28, 0.38,-0.57, 9.73, 2975
25.06, 101642.28, 0.42,-0.50, 9.71, 2980
25.06, 101642.28, 0.33,-0.44, 9.56, 2985
25.06, 101642.28, 0.38,-0.50, 9.43, 2990
25.06, 101642.28, 0.33,-0.50, 9.43, 2995
25.06, 101642.28, 0.21,-0.52, 9.54, 3000
25.06, 101642.28, 0.23,-0.56, 9.48, 3005
25.06, 101642.28, 0.17,-0.56, 9.54, 3010
25.06, 101642.28, 0.21,-0.59, 9.67, 3015
25.06, 101642.28, 0.19,-0.56, 9.60, 3020
25.06, 101639.75, 0.10,-0.52, 9.62, 3025
25.06, 101639.75, 0.19,-0.61, 9.77, 3030
25.06, 101639.75, 0.11,-0.63, 9.69, 3035
25.06, 101639.75, 0.10,-0.61, 9.71, 3040
25.06, 101639.75, 0.10,-0.56, 9.79, 3045
25.06, 101639.75, 0.11,-0.61, 9.66, 3050
25.06, 101639.75, 0.04,-0.52, 9.62, 3055
25.06, 101643.70, 0.06,-0.57, 9.69, 3060
25.06, 101643.70, 0.06,-0.65, 9.62, 3065
25.06, 101643.70, 0.10,-0.63, 9.54, 3070
25.06, 101643.70, 0.06,-0.56, 9.50, 3075
25.06, 101643.70, 0.02,-0.56, 9.56, 3080
25.06, 101643.70, 0.11,-0.61, 9.50, 3085
25.06, 101643.70, 0.10,-0.59, 9.73, 3090
25.06, 101640.47, 0.11,-0.61, 9.92, 3095
25.06, 101640.47, 0.11,-0.54, 9.73, 3100
25.06, 101640.47, 0.19,-0.59, 9.67, 3105
25.06, 101640.47, 0.17,-0.57, 9.71, 3110
25.06, 101640.47, 0.21,-0.52, 9.73, 3115
25.06, 101640.47, 0.25,-0.56, 9.69, 3120
25.06, 101640.47, 0.15,-0.59, 9.62, 3125
25.06, 101641.73, 0.27,-0.65, 9.54, 3130
25.06, 101641.73, 0.38,-0.59, 9.60, 3135
25.06, 101641.73, 0.34,-0.57, 9.58, 3140
25.06, 101641.73, 0.29,-0.52, 9.52, 3145
25.06, 101641.73, 0.33,-0.48, 9.66, 3150
25.06, 101641.73, 0.44,-0.52, 9.66, 3155
25.06, 101641.73, 0.38,-0.46, 9.71, 3160
25.06, 101642.12, 0.36,-0.46, 9.69, 3165
25.06, 101642.12, 0.38,-0.48, 9.73, 3170
25.06, 101642.12, 0.36,-0.48, 9.64, 3175
25.06, 101642.12, 0.34,-0.50, 9.56, 3180
25.06, 101642.12, 0.31,-0.50, 9.60, 3185
25.06, 101642.12, 0.34,-0.57, 9.62, 3190
25.06, 101642.12, 0.34,-0.50, 9.50, 3195
25.06, 101639.53, 0.31,-0.50, 9.37, 3200
25.06, 101639.53, 0.25,-0.61, 9.71, 3205
25.06, 101639.53, 0.29,-0.56, 9.71, 3210
25.06, 101639.53, 0.31,-0.52, 9.83, 3215
25.06, 101639.53, 0.27,-0.61, 9.90, 3220
25.06, 101639.53, 0.15,-0.59, 9.56, 3225
25.06, 101639.53, 0.15,-0.61, 9.60, 3230
25.06, 101640.84, 0.19,-0.56, 9.56, 3235
25.06, 101640.84, 0.13,-0.56, 9.60, 3240
25.06, 101640.84, 0.13,-0.56, 9.64, 3245
25.06, 101640.84, 0.15,-0.61, 9.64, 3250
25.06, 101640.84, 0.08,-0.59, 9.69, 3258
25.06, 101640.84, 0.13,-0.59, 9.81, 3262
25.06, 101640.84, 0.11,-0.59, 9.67, 3267
25.06, 101641.05, 0.10,-0.59, 9.64, 3272
25.06, 101641.05, 0.10,-0.65, 9.60, 3277
25.06, 101641.05, 0.11,-0.56, 9.64, 3282
25.06, 101641.05, 0.15,-0.63, 9.64, 3287
25.06, 101641.05, 0.23,-0.59, 9.64, 3292
25.06, 101641.05, 0.17,-0.65, 9.64, 3297
25.06, 101641.05, 0.21,-0.61, 9.69, 3302
25.06, 101640.02, 0.23,-0.57, 9.75, 3307
25.06, 101640.02, 0.27,-0.56, 9.58, 3312
25.06, 101640.02, 0.25,-0.54, 9.43, 3317
25.06, 101640.02, 0.25,-0.56, 9.60, 3322
25.06, 101640.02, 0.25,-0.50, 9.58, 3327
25.06, 101640.02, 0.25,-0.54, 9.66, 3332
25.06, 101640.02, 0.31,-0.59, 9.64, 3337
25.06, 101642.88, 0.27,-0.54, 9.62, 3342
25.06, 101642.88, 0.29,-0.46, 9.66, 3347
25.06, 101642.88, 0.33,-0.52, 9.60, 3352
25.06, 101642.88, 0.33,-0.59, 9.60, 3357
25.06, 101642.88, 0.31,-0.65, 9.69, 3362
25.06, 101642.88, 0.27,-0.59, 9.62, 3367
25.06, 101642.88, 0.27,-0.56, 9.58, 3372
25.06, 101640.58, 0.25,-0.54, 9.69, 3377
25.06, 101640.58, 0.21,-0.61, 9.64, 3382
25.06, 101640.58, 0.29,-0.61, 9.67, 3387
25.06, 101640.58, 0.27,-0.59, 9.66, 3392
25.06, 101640.58, 0.19,-0.54, 9.60, 3397
25.06, 101640.58, 0.19,-0.54, 9.60, 3402
25.06, 101640.58, 0.19,-0.44, 9.66, 3407
25.06, 101641.12, 0.19,-0.50, 9.75, 3412
25.06, 101641.12, 0.17,-0.69, 9.60, 3417
25.06, 101641.12, 0.13,-0.52, 9.54, 3422
25.06, 101641.12, 0.19,-0.54, 9.67, 3427
25.06, 101641.12, 0.15,-0.61, 9.50, 3432
25.06, 101641.12, 0.17,-0.59, 9.45, 3437
25.06, 101641.12, 0.25,-0.54, 9.52, 3442
25.06, 101642.95, 0.27,-0.52, 9.58, 3447
25.06, 101642.95, 0.19,-0.54, 9.66, 3452
25.06, 101642.95, 0.23,-0.59, 9.62, 3457
25.06, 101642.95, 0.29,-0.65, 9.60, 3462
25.06, 101642.95, 0.25,-0.54, 9.62, 3467
25.06, 101642.95, 0.21,-0.57, 9.56, 3472
25.06, 101642.95, 0.21,-0.57, 9.58, 3477
25.06, 101642.95, 0.21,-0.56, 9.64, 3482
25.06, 101643.60, 0.23,-0.52, 9.66, 3487
25.06, 101643.60, 0.19,-0.48, 9.67, 3492
25.06, 101643.60, 0.19,-0.50, 9.64, 3497
25.06, 101643.60, 0.19,-0.48, 9.64, 3502
25.06, 101643.60, 0.21,-0.52, 9.71, 3507
25.06, 101643.60, 0.21,-0.56, 9.71, 3512
25.06, 101643.60, 0.25,-0.52, 9.62, 3517
25.06, 101643.60, 0.27,-0.56, 9.58, 3522
25.06, 101643.60, 0.29,-0.56, 9.75, 3527
25.06, 101643.60, 0.23,-0.57, 9.66, 3532
25.06, 101643.60, 0.31,-0.57, 9.69, 3537
25.06, 101643.60, 0.25,-0.56, 9.66, 3542
25.06, 101643.60, 0.21,-0.54, 9.67, 3547
25.06, 101643.60, 0.27,-0.57, 9.56, 3552
25.06, 101641.62, 0.31,-0.50, 9.62, 3557
25.06, 101641.62, 0.21,-0.50, 9.67, 3562
25.06, 101641.62, 0.25,-0.50, 9.62, 3567
25.06, 101641.62, 0.29,-0.54, 9.64, 3572
25.06, 101641.62, 0.17,-0.50, 9.56, 3577
25.06, 101641.62, 0.27,-0.56, 9.60, 3582
25.06, 101641.62, 0.27,-0.50, 9.58, 3587
25.06, 101638.64, 0.29,-0.54, 9.66, 3592
25.06, 101638.64, 0.31,-0.54, 9.62, 3597
25.06, 101638.64, 0.29,-0.54, 9.62, 3602
25.06, 101638.64, 0.33,-0.52, 9.62, 3607
25.06, 101638.64, 0.36,-0.56, 9.60, 3612
25.06, 101638.64, 0.31,-0.48, 9.62, 3617
25.06, 101638.64, 0.31,-0.50, 9.60, 3622
25.06, 101640.79, 0.33,-0.52, 9.62, 3627
25.06, 101640.79, 0.29,-0.59, 9.67, 3632
25.06, 101640.79, 0.25,-0.65, 9.54, 3637
25.06, 101640.79, 0.27,-0.59, 9.73, 3642
25.06, 101640.79, 0.17,-0.63, 9.67, 3647
25.06, 101640.79, 0.15,-0.61, 9.52, 3652
25.06, 101640.79, 0.11,-0.61, 9.62, 3657
25.06, 101641.07, 0.11,-0.57, 9.45, 3662
25.06, 101641.07, 0.15,-0.54, 9.71, 3667
25.06, 101641.07, 0.17,-0.54, 9.66, 3672
25.06, 101641.07, 0.13,-0.54, 9.69, 3677
25.06, 101641.07, 0.11,-0.56, 9.77, 3682
25.06, 101641.07, 0.17,-0.65, 9.71, 3687
25.06, 101641.07, 0.17,-0.63, 9.66, 3692
25.06, 101639.36, 0.19,-0.61, 9.64, 3697
25.06, 101639.36, 0.17,-0.63, 9.58, 3702
25.06, 101639.36, 0.15,-0.57, 9.48, 3707
25.06, 101639.36, 0.25,-0.61, 9.56, 3712
25.06, 101639.36, 0.23,-0.59, 9.60, 3717
25.06, 101639.36, 0.23,-0.52, 9.62, 3722
25.06, 101639.36, 0.23,-0.52, 9.58, 3727
25.06, 101640.52, 0.23,-0.54, 9.66, 3732
25.06, 101640.52, 0.23,-0.54, 9.66, 3737
25.06, 101640.52, 0.31,-0.52, 9.69, 3742
25.06, 101640.52, 0.27,-0.54, 9.67, 3747
25.06, 101640.52, 0.34,-0.52, 9.67, 3752
25.06, 101640.52, 0.29,-0.46, 9.56, 3760
25.06, 101640.52, 0.27,-0.52, 9.22, 3764
25.06, 101640.96, 0.31,-0.54, 9.46, 3769
25.06, 101640.96, 0.29,-0.57, 9.54, 3774
25.06, 101640.96, 0.31,-0.57, 9.64, 3779
25.06, 101640.96, 0.31,-0.59, 9.64, 3784
25.06, 101640.96, 0.33,-0.65, 9.64, 3789
25.06, 101640.96, 0.34,-0.59, 9.71, 3794
25.06, 101640.96, 0.33,-0.57, 9.62, 3799
25.06, 101640.73, 0.33,-0.57, 9.64, 3804
25.06, 101640.73, 0.34,-0.59, 9.66, 3809
25.06, 101640.73, 0.23,-0.56, 9.67, 3814
25.06, 101640.73, 0.21,-0.50, 9.71, 3819
25.06, 101640.73, 0.19,-0.52, 9.60, 3824
25.06, 101640.73, 0.21,-0.52, 9.62, 3829
25.06, 101640.73, 0.21,-0.54, 9.60, 3834
25.06, 101638.31, 0.19,-0.63, 9.64, 3839
25.06, 101638.31, 0.15,-0.57, 9.77, 3844
25.06, 101638.31, 0.13,-0.63, 9.81, 3849
25.06, 101638.31, 0.11,-0.56, 9.73, 3854
25.06, 101638.31, 0.13,-0.50, 9.56, 3859
25.06, 101638.31, 0.19,-0.50, 9.71, 3864
25.06, 101638.31, 0.11,-0.56, 9.77, 3869
25.06, 101638.86, 0.13,-0.59, 9.67, 3874
25.06, 101638.86, 0.17,-0.56, 9.73, 3879
25.06, 101638.86, 0.17,-0.56, 9.67, 3884
25.06, 101638.86, 0.15,-0.52, 9.64, 3889
25.06, 101638.86, 0.15,-0.54, 9.64, 3894
25.06, 101638.86, 0.15,-0.56, 9.71, 3899
25.06, 101638.86, 0.19,-0.59, 9.64, 3904
25.06, 101639.91, 0.25,-0.59, 9.54, 3909
25.06, 101639.91, 0.23,-0.52, 9.64, 3914
25.06, 101639.91, 0.23,-0.52, 9.58, 3919
25.06, 101639.91, 0.29,-0.54, 9.64, 3924
25.06, 101639.91, 0.29,-0.54, 9.58, 3929
25.06, 101639.91, 0.29,-0.52, 9.66, 3934
25.06, 101639.91, 0.29,-0.54, 9.62, 3939
25.06, 101640.47, 0.31,-0.50, 9.62, 3944
25.06, 101640.47, 0.33,-0.54, 9.66, 3949
25.06, 101640.47, 0.34,-0.52, 9.71, 3954
25.06, 101640.47, 0.34,-0.50, 9.62, 3959
25.06, 101640.47, 0.27,-0.56, 9.77, 3964
25.06, 101640.47, 0.19,-0.50, 9.67, 3969
25.06, 101640.47, 0.21,-0.56, 9.52, 3974
25.06, 101640.47, 0.29,-0.48, 9.56, 3979
25.06, 101638.54, 0.25,-0.50, 9.52, 3984
25.06, 101638.54, 0.27,-0.52, 9.67, 3989
25.06, 101638.54, 0.23,-0.57, 9.66, 3994
25.06, 101638.54, 0.17,-0.50, 9.60, 3999
25.06, 101638.54, 0.10,-0.56, 9.66, 4004
25.06, 101638.54, 0.15,-0.63, 9.69, 4009
25.06, 101638.54, 0.13,-0.61, 9.73, 4014
25.06, 101639.97, 0.13,-0.54, 9.60, 4019
25.06, 101639.97, 0.21,-0.57, 9.62, 4024
25.06, 101639.97, 0.19,-0.59, 9.66, 4029
25.06, 101639.97, 0.17,-0.61, 9.67, 4034
25.06, 101639.97, 0.13,-0.59, 9.71, 4039
25.06, 101639.97, 0.21,-0.56, 9.67, 4044
25.06, 101639.97, 0.23,-0.52, 9.66, 4049
25.06, 101638.70, 0.17,-0.52, 9.64, 4054
25.06, 101638.70, 0.23,-0.54, 9.66, 4059
25.06, 101638.70, 0.23,-0.57, 9.58, 4064
25.06, 101638.70, 0.23,-0.56, 9.60, 4069
25.06, 101638.70, 0.27,-0.54, 9.69, 4074
25.06, 101638.70, 0.23,-0.56, 9.46, 4079
25.06, 101638.70, 0.29,-0.57, 9.77, 4084
25.06, 101638.70, 0.25,-0.56, 9.85, 4089
25.06, 101638.70, 0.21,-0.48, 9.66, 4094
25.06, 101638.70, 0.25,-0.56, 9.66, 4099
25.06, 101638.70, 0.29,-0.54, 9.81, 4104
25.06, 101638.70, 0.29,-0.56, 9.75, 4109
25.06, 101638.70, 0.25,-0.57, 9.60, 4114
25.06, 101638.70, 0.29,-0.48, 9.62, 4119
25.06, 101638.20, 0.23,-0.52, 9.66, 4124
25.06, 101638.20, 0.25,-0.54, 9.67, 4129
25.06, 101638.20, 0.27,-0.56, 9.71, 4134
25.06, 101638.20, 0.21,-0.59, 9.71, 4139
25.06, 101638.20, 0.21,-0.59, 9.71, 4144
25.06, 101638.20, 0.23,-0.50, 9.66, 4149
25.06, 101638.20, 0.23,-0.54, 9.60, 4154
25.06, 101639.36, 0.21,-0.54, 9.60, 4159
25.06, 101639.36, 0.25,-0.59, 9.64, 4164
25.06, 101639.36, 0.25,-0.61, 9.64, 4169
25.06, 101639.36, 0.19,-0.52, 9.62, 4174
25.06, 101639.36, 0.25,-0.57, 9.64, 4179
25.06, 101639.36, 0.19,-0.54, 9.69, 4184
25.06, 101639.36, 0.21,-0.54, 9.69, 4189
25.06, 101637.00, 0.19,-0.67, 9.56, 4194
25.06, 101637.00, 0.13,-0.59, 9.73, 4199
25.06, 101637.00, 0.13,-0.63, 9.67, 4204
25.06, 101637.00, 0.21,-0.57, 9.81, 4209
25.06, 101637.00, 0.21,-0.56, 9.58, 4214
25.06, 101637.00, 0.23,-0.61, 9.64, 4219
25.06, 101637.00, 0.17,-0.57, 9.58, 4224
25.06, 101638.64, 0.23,-0.59, 9.60, 4229
25.06, 101638.64, 0.19,-0.56, 9.66, 4234
25.06, 101638.64, 0.23,-0.54, 9.62, 4239
25.06, 101638.64, 0.29,-0.57, 9.67, 4244
25.06, 101638.64, 0.29,-0.61, 9.64, 4249
25.06, 101638.64, 0.25,-0.61, 9.64, 4254
25.06, 101638.64, 0.23,-0.56, 9.67, 4262
25.06, 101640.73, 0.29,-0.54, 9.60, 4266
25.06, 101640.73, 0.31,-0.52, 9.69, 4271
25.06, 101640.73, 0.31,-0.54, 9.62, 4276
25.06, 101640.73, 0.25,-0.52, 9.69, 4281
25.06, 101640.73, 0.25,-0.54, 9.67, 4286
25.06, 101640.73, 0.31,-0.50, 9.73, 4291
25.06, 101640.73, 0.23,-0.48, 9.48, 4296
25.06, 101641.12, 0.27,-0.54, 9.66, 4301
25.06, 101641.12, 0.29,-0.54, 9.64, 4306
25.06, 101641.12, 0.34,-0.56, 9.62, 4311
25.06, 101641.12, 0.21,-0.56, 9.62, 4316
25.06, 101641.12, 0.25,-0.57, 9.52, 4321
25.06, 101641.12, 0.27,-0.59, 9.66, 4326
25.06, 101641.12, 0.29,-0.52, 9.64, 4331
25.06, 101640.47, 0.23,-0.56, 9.58, 4336
25.06, 101640.47, 0.17,-0.56, 9.60, 4341
25.06, 101640.47, 0.23,-0.54, 9.64, 4346
25.06, 101640.47, 0.21,-0.57, 9.67, 4351
25.06, 101640.47, 0.25,-0.57, 9.64, 4356
25.06, 101640.47, 0.23,-0.56, 9.64, 4361
25.06, 101640.47, 0.25,-0.52, 9.66, 4366
25.06, 101639.91, 0.23,-0.52, 9.62, 4371
25.06, 101639.91, 0.19,-0.56, 9.60, 4376
25.06, 101639.91, 0.29,-0.56, 9.69, 4381
25.06, 101639.91, 0.29,-0.44, 9.67, 4386
25.06, 101639.91, 0.21,-0.54, 9.56, 4391
25.06, 101639.91, 0.29,-0.54, 9.48, 4396
25.06, 101639.91, 0.31,-0.54, 9.58, 4401
25.06, 101640.96, 0.31,-0.52, 9.69, 4406
25.06, 101640.96, 0.34,-0.54, 9.85, 4411
25.06, 101640.96, 0.27,-0.54, 9.83, 4416
25.06, 101640.96, 0.21,-0.57, 9.71, 4421
25.06, 101640.96, 0.23,-0.57, 9.64, 4426
25.06, 101640.96, 0.15,-0.56, 9.66, 4431
25.06, 101640.96, 0.27,-0.57, 9.60, 4436
25.06, 101641.30, 0.21,-0.52, 9.56, 4441
25.06, 101641.30, 0.19,-0.52, 9.62, 4446
25.06, 101641.30, 0.19,-0.54, 9.56, 4451
25.06, 101641.30, 0.17,-0.56, 9.60, 4456
25.06, 101641.30, 0.21,-0.56, 9.64, 4461
25.06, 101641.30, 0.19,-0.52, 9.66, 4466
25.06, 101641.30, 0.25,-0.57, 9.64, 4471
25.06, 101641.30, 0.27,-0.54, 9.62, 4476
25.06, 101640.80, 0.27,-0.52, 9.67, 4481
25.06, 101640.80, 0.19,-0.50, 9.62, 4486
25.06, 101640.80, 0.15,-0.54, 9.64, 4491
25.06, 101640.80, 0.17,-0.57, 9.62, 4496
25.06, 101640.80, 0.17,-0.54, 9.58, 4501
25.06, 101640.80, 0.19,-0.56, 9.52, 4506
25.06, 101640.80, 0.25,-0.50, 9.64, 4511
25.06, 101641.95, 0.29,-0.54, 9.46, 4516
25.06, 101641.95, 0.13,-0.54, 9.52, 4521
25.06, 101641.95, 0.19,-0.57, 9.58, 4526
25.06, 101641.95, 0.29,-0.54, 9.71, 4531
25.06, 101641.95, 0.23,-0.59, 9.67, 4536
25.06, 101641.95, 0.17,-0.61, 9.69, 4541
25.06, 101641.95, 0.25,-0.54, 9.69, 4546
25.06, 101636.89, 0.23,-0.57, 9.64, 4551
25.06, 101636.89, 0.29,-0.54, 9.64, 4556
25.06, 101636.89, 0.29,-0.52, 9.67, 4561
25.06, 101636.89, 0.25,-0.54, 9.64, 4566
25.06, 101636.89, 0.25,-0.54, 9.64, 4571
25.06, 101636.89, 0.21,-0.61, 9.54, 4576
25.06, 101636.89, 0.25,-0.59, 9.54, 4581
25.06, 101640.91, 0.21,-0.52, 9.69, 4586
25.06, 101640.91, 0.17,-0.54, 9.62, 4591
25.06, 101640.91, 0.21,-0.56, 9.56, 4596
25.06, 101640.91, 0.21,-0.54, 9.58, 4601
25.06, 101640.91, 0.25,-0.61, 9.62, 4606
25.06, 101640.91, 0.29,-0.57, 9.75, 4611
25.06, 101640.91, 0.27,-0.59, 9.64, 4616
25.06, 101639.86, 0.29,-0.59, 9.62, 4621
25.06, 101639.86, 0.27,-0.59, 9.66, 4626
25.06, 101639.86, 0.23,-0.57, 9.56, 4631
25.06, 101639.86, 0.25,-0.52, 9.58, 4636
25.06, 101639.86, 0.27,-0.56, 9.67, 4641
25.06, 101639.86, 0.17,-0.54, 9.66, 4646
25.06, 101639.86, 0.21,-0.56, 9.67, 4651
25.06, 101639.25, 0.19,-0.48, 9.81, 4656
25.06, 101639.25, 0.19,-0.54, 9.64, 4661
25.06, 101639.25, 0.23,-0.54, 9.64, 4666
25.06, 101639.25, 0.17,-0.54, 9.60, 4671
25.06, 101639.25, 0.27,-0.59, 9.62, 4676
25.06, 101639.25, 0.23,-0.50, 9.56, 4681
25.06, 101639.25, 0.29,-0.59, 9.66, 4686
25.06, 101638.77, 0.25,-0.54, 9.66, 4691
25.06, 101638.77, 0.25,-0.54, 9.62, 4696
25.06, 101638.77, 0.27,-0.59, 9.60, 4701
25.06, 101638.77, 0.17,-0.57, 9.58, 4706
25.06, 101638.77, 0.23,-0.54, 9.62, 4711
25.06, 101638.77, 0.19,-0.50, 9.64, 4716
25.06, 101638.77, 0.23,-0.54, 9.58, 4721
25.06, 101640.62, 0.19,-0.54, 9.60, 4726
25.06, 101640.62, 0.27,-0.59, 9.62, 4731
25.06, 101640.62, 0.27,-0.63, 9.60, 4736
25.06, 101640.62, 0.27,-0.52, 9.75, 4741
25.06, 101640.62, 0.23,-0.65, 9.64, 4746
25.06, 101640.62, 0.19,-0.59, 9.64, 4751
25.06, 101640.62, 0.25,-0.59, 9.62, 4756
25.06, 101638.05, 0.34,-0.54, 9.73, 4769
25.06, 101638.05, 0.31,-0.57, 9.60, 4774
25.06, 101638.05, 0.29,-0.61, 9.75, 4779
25.06, 101638.05, 0.27,-0.57, 9.64, 4784
25.06, 101638.05, 0.23,-0.57, 9.60, 4789
25.06, 101638.05, 0.23,-0.56, 9.56, 4794
25.06, 101641.12, 0.25,-0.57, 9.66, 4799
25.06, 101641.12, 0.17,-0.52, 9.64, 4804
25.06, 101641.12, 0.17,-0.56, 9.58, 4809
25.06, 101641.12, 0.19,-0.54, 9.54, 4814
25.06, 101641.12, 0.21,-0.57, 9.64, 4819
25.06, 101641.12, 0.27,-0.50, 9.69, 4824
25.06, 101641.12, 0.25,-0.54, 9.73, 4829
25.06, 101641.50, 0.25,-0.48, 9.71, 4834
25.06, 101641.50, 0.29,-0.54, 9.73, 4839
25.06, 101641.50, 0.23,-0.56, 9.71, 4844
25.06, 101641.50, 0.25,-0.54, 9.62, 4849
25.06, 101641.50, 0.23,-0.54, 9.66, 4854
25.06, 101641.50, 0.19,-0.57, 9.52, 4859
25.06, 101641.50, 0.25,-0.52, 9.52, 4864
25.06, 101641.23, 0.19,-0.54, 9.54, 4869
25.06, 101641.23, 0.25,-0.59, 9.69, 4874
25.06, 101641.23, 0.23,-0.52, 9.67, 4879
25.06, 101641.23, 0.11,-0.46, 9.52, 4884
25.06, 101641.23, 0.15,-0.50, 9.35, 4889
25.06, 101641.23, 0.25,-0.50, 9.71, 4894
25.06, 101641.23, 0.23,-0.52, 9.64, 4899
25.06, 101638.09, 0.23,-0.48, 9.77, 4904
25.06, 101638.09, 0.10,-0.57, 9.43, 4909
25.06, 101638.09, 0.17,-0.56, 9.48, 4914
25.06, 101638.09, 0.17,-0.50, 9.62, 4919
25.06, 101638.09, 0.15,-0.52, 9.67, 4924
25.06, 101638.09, 0.11,-0.44, 9.67, 4929
25.06, 101638.09, 0.15,-0.56, 9.62, 4934
25.06, 101639.03, 0.19,-0.63, 9.67, 4939
25.06, 101639.03, 0.29,-0.61, 9.67, 4944
25.06, 101639.03, 0.23,-0.48, 9.60, 4949
25.06, 101639.03, 0.19,-0.56, 9.64, 4954
25.06, 101639.03, 0.15,-0.52, 9.67, 4959
25.06, 101639.03, 0.19,-0.57, 9.66, 4964
25.06, 101639.03, 0.21,-0.59, 9.66, 4969
25.06, 101640.47, 0.25,-0.54, 9.67, 4974
25.06, 101640.47, 0.15,-0.56, 9.60, 4979
25.06, 101640.47, 0.23,-0.57, 9.64, 4984
25.06, 101640.47, 0.25,-0.57, 9.58, 4989
25.06, 101640.47, 0.23,-0.61, 9.54, 4994
25.06, 101640.47, 0.27,-0.52, 9.69, 4999
25.06, 101640.47, 0.25,-0.48, 9.67, 5004
25.06, 101638.92, 0.23,-0.44, 9.62, 5009
25.06, 101638.92, 0.33,-0.59, 9.75, 5014
25.06, 101638.92, 0.27,-0.56, 9.50, 5019
25.06, 101638.92, 0.21,-0.57, 9.67, 5024
25.06, 101638.92, 0.21,-0.59, 9.66, 5029
25.06, 101638.92, 0.21,-0.57, 9.64, 5034
25.06, 101638.92, 0.19,-0.56, 9.69, 5039
25.06, 101638.92, 0.25,-0.56, 9.71, 5044
25.06, 101639.81, 0.21,-0.61, 9.66, 5049
25.06, 101639.81, 0.17,-0.57, 9.66, 5054
25.06, 101639.81, 0.23,-0.61, 9.64, 5059
25.06, 101639.81, 0.23,-0.54, 9.69, 5064
25.06, 101639.81, 0.23,-0.56, 9.67, 5069
25.06, 101639.81, 0.23,-0.61, 9.67, 5074
25.06, 101639.81, 0.17,-0.57, 9.69, 5079
25.06, 101637.83, 0.27,-0.59, 9.64, 5084
25.06, 101637.83, 0.17,-0.56, 9.67, 5089
25.06, 101637.83, 0.17,-0.56, 9.62, 5094
25.06, 101637.83, 0.13,-0.52, 9.58, 5099
25.06, 101637.83, 0.21,-0.54, 9.66, 5104
25.06, 101637.83, 0.17,-0.57, 9.69, 5109
25.06, 101637.83, 0.08,-0.57, 9.46, 5114
25.06, 101640.80, 0.15,-0.50, 9.73, 5119
25.06, 101640.80, 0.15,-0.44, 9.77, 5124
25.06, 101640.80, 0.13,-0.59, 9.73, 5129
25.06, 101640.80, 0.15,-0.61, 9.62, 5134
25.06, 101640.80, 0.21,-0.61, 9.73, 5139
25.06, 101640.80, 0.21,-0.61, 9.71, 5144
25.06, 101640.80, 0.21,-0.59, 9.69, 5149
25.06, 101642.61, 0.21,-0.56, 9.77, 5154
25.06, 101642.61, 0.23,-0.54, 9.69, 5159
25.06, 101642.61, 0.25,-0.50, 9.67, 5164
25.06, 101642.61, 0.21,-0.48, 9.66, 5169
25.06, 101642.61, 0.21,-0.54, 9.64, 5174
25.06, 101642.61, 0.21,-0.48, 9.71, 5179
25.06, 101642.61, 0.23,-0.56, 9.64, 5184
25.06, 101640.91, 0.25,-0.54, 9.66, 5189
25.06, 101640.91, 0.29,-0.57, 9.60, 5194
25.06, 101640.91, 0.29,-0.54, 9.62, 5199
25.06, 101640.91, 0.25,-0.56, 9.58, 5204
25.06, 101640.91, 0.29,-0.56, 9.66, 5209
25.06, 101640.91, 0.25,-0.48, 9.62, 5214
25.06, 101640.91, 0.21,-0.54, 9.66, 5219
25.06, 101638.27, 0.19,-0.57, 9.58, 5224
25.06, 101638.27, 0.19,-0.57, 9.66, 5229
25.06, 101638.27, 0.21,-0.50, 9.60, 5234
25.06, 101638.27, 0.21,-0.57, 9.56, 5239
25.06, 101638.27, 0.19,-0.56, 9.79, 5244
25.06, 101638.27, 0.15,-0.54, 9.75, 5249
25.06, 101638.27, 0.23,-0.48, 9.73, 5254
25.06, 101639.64, 0.17,-0.50, 9.75, 5259
25.06, 101639.64, 0.21,-0.57, 9.69, 5264
25.06, 101639.64, 0.19,-0.57, 9.66, 5274
25.06, 101639.64, 0.15,-0.59, 9.64, 5278
25.06, 101639.64, 0.31,-0.50, 9.64, 5283
25.06, 101639.64, 0.27,-0.50, 9.54, 5288
25.06, 101636.89, 0.25,-0.59, 9.64, 5293
25.06, 101636.89, 0.29,-0.59, 9.62, 5298
25.06, 101636.89, 0.21,-0.54, 9.66, 5303
25.06, 101636.89, 0.23,-0.54, 9.41, 5308
25.06, 101636.89, 0.31,-0.56, 9.48, 5313
25.06, 101636.89, 0.29,-0.57, 9.54, 5318
25.06, 101636.89, 0.27,-0.46, 9.66, 5323
25.06, 101636.89, 0.27,-0.54, 9.67, 5328
25.06, 101639.64, 0.33,-0.52, 9.64, 5333
25.06, 101639.64, 0.17,-0.56, 9.56, 5338
25.06, 101639.64, 0.21,-0.61, 9.60, 5343
25.06, 101639.64, 0.23,-0.57, 9.66, 5348
25.06, 101639.64, 0.25,-0.52, 9.66, 5353
25.06, 101639.64, 0.25,-0.56, 9.67, 5358
25.06, 101639.64, 0.21,-0.54, 9.67, 5363
25.06, 101640.47, 0.21,-0.56, 9.60, 5368
25.06, 101640.47, 0.13,-0.59, 9.64, 5373
25.06, 101640.47, 0.11,-0.61, 9.62, 5378
25.06, 101640.47, 0.15,-0.56, 9.60, 5383
25.06, 101640.47, 0.15,-0.59, 9.71, 5388
25.06, 101640.47, 0.13,-0.56, 9.64, 5393
25.06, 101640.47, 0.15,-0.54, 9.66, 5398
25.06, 101641.72, 0.19,-0.56, 9.67, 5403
25.06, 101641.72, 0.17,-0.57, 9.54, 5408
25.06, 101641.72, 0.25,-0.54, 9.46, 5413
25.06, 101641.72, 0.21,-0.50, 9.75, 5418
25.06, 101641.72, 0.27,-0.69, 9.66, 5423
25.06, 101641.72, 0.23,-0.61, 9.64, 5428
25.06, 101641.72, 0.33,-0.54, 9.73, 5433
25.06, 101642.28, 0.29,-0.57, 9.64, 5438
25.06, 101642.28, 0.25,-0.57, 9.67, 5443
25.06, 101642.28, 0.25,-0.52, 9.73, 5448
25.06, 101642.28, 0.23,-0.48, 9.67, 5453
25.06, 101642.28, 0.27,-0.54, 9.67, 5458
25.06, 101642.28, 0.29,-0.54, 9.58, 5463
25.06, 101642.28, 0.27,-0.46, 9.62, 5468
25.06, 101639.91, 0.27,-0.59, 9.58, 5473
25.06, 101639.91, 0.25,-0.52, 9.58, 5478
25.06, 101639.91, 0.25,-0.57, 9.58, 5483
25.06, 101639.91, 0.21,-0.59, 9.66, 5488
25.06, 101639.91, 0.21,-0.59, 9.62, 5493
25.06, 101639.91, 0.27,-0.56, 9.62, 5498
25.06, 101639.91, 0.23,-0.57, 9.64, 5503
25.06, 101639.81, 0.17,-0.56, 9.67, 5508
25.06, 101639.81, 0.21,-0.52, 9.64, 5513
25.06, 101639.81, 0.19,-0.57, 9.66, 5518
25.06, 101639.81, 0.23,-0.57, 9.64, 5523
25.06, 101639.81, 0.23,-0.59, 9.64, 5528
25.06, 101639.81, 0.19,-0.54, 9.56, 5533
25.06, 101639.81, 0.25,-0.54, 9.58, 5538
25.06, 101638.27, 0.17,-0.56, 9.54, 5543
25.06, 101638.27, 0.19,-0.59, 9.69, 5548
25.06, 101638.27, 0.21,-0.52, 9.60, 5553
25.06, 101638.27, 0.25,-0.52, 9.52, 5558
25.06, 101638.27, 0.25,-0.48, 9.54, 5563
25.06, 101638.27, 0.19,-0.57, 9.62, 5568
25.06, 101638.27, 0.27,-0.63, 9.60, 5573
25.06, 101641.95, 0.19,-0.54, 9.62, 5578
25.06, 101641.95, 0.19,-0.52, 9.56, 5583
25.06, 101641.95, 0.17,-0.56, 9.69, 5588
25.06, 101641.95, 0.29,-0.59, 9.71, 5593
25.06, 101641.95, 0.21,-0.48, 9.66, 5598
25.06, 101641.95, 0.23,-0.54, 9.60, 5603
25.06, 101641.95, 0.17,-0.56, 9.56, 5608
25.06, 101642.78, 0.23,-0.52, 9.58, 5613
25.06, 101642.78, 0.19,-0.50, 9.66, 5618
25.06, 101642.78, 0.27,-0.54, 9.67, 5623
25.06, 101642.78, 0.23,-0.56, 9.64, 5628
25.06, 101642.78, 0.19,-0.52, 9.60, 5633
25.06, 101642.78, 0.13,-0.54, 9.64, 5638
25.06, 101642.78, 0.23,-0.57, 9.62, 5643
25.06, 101641.62, 0.21,-0.59, 9.52, 5648
25.06, 101641.62, 0.19,-0.56, 9.52, 5653
25.06, 101641.62, 0.19,-0.57, 9.71, 5658
25.06, 101641.62, 0.29,-0.50, 9.58, 5663
25.06, 101641.62, 0.29,-0.46, 9.29, 5668
25.06, 101641.62, 0.27,-0.57, 9.54, 5673
25.06, 101641.62, 0.25,-0.50, 9.71, 5678
25.06, 101641.62, 0.31,-0.50, 9.71, 5683
25.06, 101639.91, 0.21,-0.56, 9.71, 5688
25.06, 101639.91, 0.25,-0.57, 9.71, 5693
25.06, 101639.91, 0.27,-0.54, 9.66, 5698
25.06, 101639.91, 0.25,-0.59, 9.56, 5703
25.06, 101639.91, 0.19,-0.50, 9.58, 5708
25.06, 101639.91, 0.25,-0.56, 9.64, 5713
25.06, 101639.91, 0.31,-0.56, 9.66, 5718
25.06, 101639.48, 0.34,-0.54, 9.67, 5723
25.06, 101639.48, 0.31,-0.57, 9.62, 5728
25.06, 101639.48, 0.29,-0.57, 9.64, 5733
25.06, 101639.48, 0.23,-0.56, 9.64, 5738
25.06, 101639.48, 0.15,-0.57, 9.67, 5743
25.06, 101639.48, 0.27,-0.59, 9.67, 5748
25.06, 101639.48, 0.19,-0.52, 9.66, 5753
25.06, 101642.77, 0.19,-0.56, 9.64, 5758
25.06, 101642.77, 0.21,-0.54, 9.66, 5763
25.06, 101642.77, 0.25,-0.48, 9.66, 5768
25.06, 101642.77, 0.19,-0.56, 9.71, 5776
25.06, 101642.77, 0.15,-0.57, 9.73, 5780
25.06, 101642.77, 0.13,-0.57, 9.66, 5785
25.06, 101640.06, 0.19,-0.52, 9.66, 5790
25.06, 101640.06, 0.23,-0.48, 9.62, 5795
25.06, 101640.06, 0.10,-0.57, 9.66, 5800
25.06, 101640.06, 0.19,-0.57, 9.73, 5805
25.06, 101640.06, 0.19,-0.56, 9.62, 5810
25.06, 101640.06, 0.23,-0.54, 9.60, 5815
25.06, 101640.06, 0.25,-0.56, 9.62, 5820
25.06, 101640.06, 0.17,-0.61, 9.62, 5825
25.06, 101640.47, 0.19,-0.59, 9.60, 5830
25.06, 101640.47, 0.19,-0.54, 9.64, 5835
25.06, 101640.47, 0.17,-0.57, 9.62, 5840
25.06, 101640.47, 0.21,-0.65, 9.64, 5845
25.06, 101640.47, 0.27,-0.59, 9.67, 5850
25.06, 101640.47, 0.23,-0.56, 9.73, 5855
25.06, 101640.47, 0.19,-0.56, 9.62, 5860
25.06, 101639.41, 0.27,-0.50, 9.67, 5865
25.06, 101639.41, 0.27,-0.57, 9.69, 5870
25.06, 101639.41, 0.25,-0.56, 9.54, 5875
25.06, 101639.41, 0.27,-0.56, 9.71, 5880
25.06, 101639.41, 0.27,-0.46, 9.60, 5885
25.06, 101639.41, 0.29,-0.50, 9.73, 5890
25.06, 101639.41, 0.19,-0.54, 9.71, 5895
25.06, 101636.84, 0.29,-0.52, 9.66, 5900
25.06, 101636.84, 0.29,-0.57, 9.66, 5905
25.06, 101636.84, 0.25,-0.54, 9.66, 5910
25.06, 101636.84, 0.31,-0.57, 9.66, 5915
25.06, 101636.84, 0.23,-0.56, 9.67, 5920
25.06, 101636.84, 0.21,-0.57, 9.64, 5925
25.06, 101636.84, 0.23,-0.50, 9.60, 5930
25.06, 101638.97, 0.23,-0.50, 9.60, 5935
25.06, 101638.97, 0.21,-0.57, 9.62, 5940
25.06, 101638.97, 0.17,-0.56, 9.64, 5945
25.06, 101638.97, 0.23,-0.59, 9.58, 5950
25.06, 101638.97, 0.17,-0.59, 9.62, 5955
25.06, 101638.97, 0.15,-0.54, 9.62, 5960
25.06, 101638.97, 0.13,-0.59, 9.66, 5965
25.06, 101638.98, 0.19,-0.56, 9.66, 5970
25.06, 101638.98, 0.23,-0.54, 9.64, 5975
25.06, 101638.98, 0.21,-0.54, 9.64, 5980
25.06, 101638.98, 0.25,-0.54, 9.67, 5985
25.06, 101638.98, 0.13,-0.59, 9.50, 5990
25.06, 101638.98, 0.11,-0.63, 9.64, 5995
25.06, 101638.98, 0.17,-0.61, 9.67, 6000
25.06, 101638.16, 0.25,-0.59, 9.66, 6005
25.06, 101638.16, 0.29,-0.59, 9.54, 6010
25.06, 101638.16, 0.19,-0.52, 9.64, 6015
25.06, 101638.16, 0.17,-0.59, 9.66, 6020
25.06, 101638.16, 0.17,-0.57, 9.62, 6025
25.06, 101638.16, 0.19,-0.59, 9.56, 6030
25.06, 101638.16, 0.21,-0.54, 9.69, 6035
25.06, 101640.30, 0.31,-0.67, 9.77, 6040
25.06, 101640.30, 0.33,-0.63, 9.75, 6045
25.06, 101640.30, 0.27,-0.48, 9.66, 6050
25.06, 101640.30, 0.29,-0.46, 9.60, 6055
25.06, 101640.30, 0.31,-0.48, 9.69, 6060
25.06, 101640.30, 0.33,-0.48, 9.67, 6065
25.06, 101640.30, 0.29,-0.48, 9.64, 6070
25.06, 101640.47, 0.27,-0.54, 9.67, 6075
25.06, 101640.47, 0.33,-0.57, 9.56, 6080
25.06, 101640.47, 0.27,-0.59, 9.62, 6085
25.06, 101640.47, 0.27,-0.61, 9.62, 6090
25.06, 101640.47, 0.23,-0.61, 9.60, 6095
25.06, 101640.47, 0.23,-0.52, 9.66, 6100
25.06, 101640.47, 0.17,-0.54, 9.64, 6105
25.06, 101640.80, 0.13,-0.65, 9.69, 6110
25.06, 101640.80, 0.19,-0.50, 9.58, 6115
25.06, 101640.80, 0.13,-0.65, 9.58, 6120
25.06, 101640.80, 0.15,-0.61, 9.62, 6125
25.06, 101640.80, 0.17,-0.59, 9.54, 6130
25.06, 101640.80, 0.23,-0.57, 9.67, 6135
25.06, 101640.80, 0.21,-0.54, 9.67, 6140
25.06, 101642.45, 0.15,-0.56, 9.60, 6145
25.06, 101642.45, 0.19,-0.54, 9.60, 6150
25.06, 101642.45, 0.19,-0.57, 9.62, 6155
25.06, 101642.45, 0.15,-0.54, 9.54, 6160
25.06, 101642.45, 0.23,-0.56, 9.64, 6165
25.06, 101642.45, 0.23,-0.52, 9.64, 6170
25.06, 101642.45, 0.29,-0.54, 9.64, 6175
25.06, 101642.45, 0.31,-0.57, 9.62, 6180
25.06, 101641.79, 0.27,-0.59, 9.64, 6185
25.06, 101641.79, 0.29,-0.59, 9.69, 6190
25.06, 101641.79, 0.29,-0.57, 9.62, 6195
25.06, 101641.79, 0.25,-0.57, 9.67, 6200
25.06, 101641.79, 0.33,-0.56, 9.67, 6205
25.06, 101641.79, 0.31,-0.59, 9.58, 6210
25.06, 101641.79, 0.27,-0.61, 9.62, 6215
25.06, 101640.62, 0.27,-0.46, 9.67, 6220
25.06, 101640.62, 0.23,-0.56, 9.87, 6225
25.06, 101640.62, 0.19,-0.59, 9.58, 6230
25.06, 101640.62, 0.21,-0.48, 9.64, 6235
25.06, 101640.62, 0.15,-0.52, 9.60, 6240
25.06, 101640.62, 0.10,-0.52, 9.79, 6245
25.06, 101640.62, 0.19,-0.56, 9.73, 6250
25.06, 101642.38, 0.11,-0.63, 9.58, 6255
25.06, 101642.38, 0.11,-0.59, 9.66, 6260
25.06, 101642.38, 0.08,-0.57, 9.64, 6265
25.06, 101642.38, 0.10,-0.54, 9.69, 6270
25.06, 101642.38, 0.13,-0.63, 9.71, 6278
25.06, 101642.38, 0.17,-0.63, 9.69, 6282
25.06, 101642.05, 0.19,-0.50, 9.67, 6287
25.06, 101642.05, 0.21,-0.52, 9.67, 6292
25.06, 101642.05, 0.23,-0.56, 9.71, 6297
25.06, 101642.05, 0.27,-0.59, 9.69, 6302
25.06, 101642.05, 0.25,-0.57, 9.54, 6307
25.06, 101642.05, 0.25,-0.59, 9.54, 6312
25.06, 101642.05, 0.27,-0.61, 9.75, 6317
25.06, 101642.05, 0.40,-0.57, 9.54, 6322
25.06, 101639.31, 0.31,-0.63, 9.73, 6327
25.06, 101639.31, 0.29,-0.63, 9.50, 6332
25.06, 101639.31, 0.40,-0.57, 9.45, 6337
25.06, 101639.31, 0.29,-0.54, 9.71, 6342
25.06, 101639.31, 0.33,-0.56, 9.71, 6347
25.06, 101639.31, 0.23,-0.59, 9.73, 6352
25.06, 101639.31, 0.27,-0.48, 9.64, 6357
25.06, 101640.47, 0.31,-0.54, 9.67, 6362
25.06, 101640.47, 0.27,-0.61, 9.62, 6367
25.06, 101640.47, 0.21,-0.57, 9.67, 6372
25.06, 101640.47, 0.29,-0.56, 9.64, 6377
25.06, 101640.47, 0.21,-0.54, 9.60, 6382
25.06, 101640.47, 0.33,-0.50, 9.60, 6387
25.06, 101640.47, 0.29,-0.57, 9.64, 6392
25.06, 101640.95, 0.25,-0.63, 9.60, 6397
25.06, 101640.95, 0.21,-0.56, 9.66, 6402
25.06, 101640.95, 0.25,-0.59, 9.64, 6407
25.06, 101640.95, 0.27,-0.61, 9.66, 6412
25.06, 101640.95, 0.15,-0.56, 9.67, 6417
25.06, 101640.95, 0.21,-0.56, 9.71, 6422
25.06, 101640.95, 0.13,-0.57, 9.60, 6427
25.06, 101642.77, 0.13,-0.63, 9.56, 6432
25.06, 101642.77, 0.23,-0.59, 9.67, 6437
25.06, 101642.77, 0.21,-0.67, 9.69, 6442
25.06, 101642.77, 0.23,-0.57, 9.50, 6447
25.06, 101642.77, 0.33,-0.57, 9.52, 6452
25.06, 101642.77, 0.25,-0.61, 9.60, 6457
25.06, 101642.77, 0.25,-0.59, 9.66, 6462
25.06, 101643.86, 0.25,-0.57, 9.67, 6467
25.06, 101643.86, 0.23,-0.61, 9.67, 6472
25.06, 101643.86, 0.17,-0.57, 9.60, 6477
25.06, 101643.86, 0.17,-0.52, 9.58, 6482
25.06, 101643.86, 0.19,-0.50, 9.60, 6487
25.06, 101643.86, 0.27,-0.57, 9.64, 6492
25.06, 101643.86, 0.25,-0.50, 9.64, 6497
25.06, 101641.12, 0.25,-0.52, 9.66, 6502
25.06, 101641.12, 0.31,-0.54, 9.67, 6507
25.06, 101641.12, 0.23,-0.52, 9.66, 6512
25.06, 101641.12, 0.25,-0.56, 9.66, 6517
25.06, 101641.12, 0.29,-0.54, 9.67, 6522
25.06, 101641.12, 0.29,-0.54, 9.67, 6527
25.06, 101641.12, 0.21,-0.56, 9.73, 6532
25.06, 101642.44, 0.23,-0.59, 9.64, 6537
25.06, 101642.44, 0.19,-0.59, 9.64, 6542
25.06, 101642.44, 0.25,-0.56, 9.79, 6547
25.06, 101642.44, 0.27,-0.61, 9.56, 6552
25.06, 101642.44, 0.21,-0.54, 9.56, 6557
25.06, 101642.44, 0.15,-0.56, 9.58, 6562
25.06, 101642.44, 0.25,-0.57, 9.79, 6567
25.06, 101639.97, 0.13,-0.56, 9.75, 6572
25.06, 101639.97, 0.13,-0.59, 9.75, 6577
25.06, 101639.97, 0.17,-0.54, 9.58, 6582
25.06, 101639.97, 0.21,-0.52, 9.69, 6587
25.06, 101639.97, 0.19,-0.59, 9.64, 6592
25.06, 101639.97, 0.17,-0.59, 9.67, 6597
25.06, 101639.97, 0.23,-0.56, 9.66, 6602
25.06, 101643.37, 0.21,-0.56, 9.66, 6607
25.06, 101643.37, 0.19,-0.57, 9.62, 6612
25.06, 101643.37, 0.19,-0.57, 9.62, 6617
25.06, 101643.37, 0.25,-0.57, 9.60, 6622
25.06, 101643.37, 0.27,-0.54, 9.60, 6627
25.06, 101643.37, 0.25,-0.57, 9.64, 6632
25.06, 101643.37, 0.27,-0.59, 9.66, 6637
25.06, 101639.64, 0.31,-0.52, 9.66, 6642
25.06, 101639.64, 0.31,-0.57, 9.60, 6647
25.06, 101639.64, 0.25,-0.61, 9.64, 6652
25.06, 101639.64, 0.27,-0.57, 9.64, 6657
25.06, 101639.64, 0.10,-0.56, 9.62, 6662
25.06, 101639.64, 0.17,-0.50, 9.58, 6667
25.06, 101639.64, 0.27,-0.54, 9.69, 6672
25.06, 101639.64, 0.23,-0.57, 9.60, 6677
25.06, 101642.59, 0.27,-0.54, 9.71, 6682
25.06, 101642.59, 0.21,-0.59, 9.67, 6687
25.06, 101642.59, 0.21,-0.52, 9.67, 6692
25.06, 101642.59, 0.23,-0.50, 9.62, 6697
25.06, 101642.59, 0.17,-0.46, 9.67, 6702
25.06, 101642.59, 0.11,-0.54, 9.71, 6707
25.06, 101642.59, 0.27,-0.61, 9.62, 6712
25.06, 101641.77, 0.23,-0.54, 9.66, 6717
25.06, 101641.77, 0.19,-0.56, 9.62, 6722
25.06, 101641.77, 0.17,-0.57, 9.60, 6727
25.06, 101641.77, 0.15,-0.54, 9.67, 6732
25.06, 101641.77, 0.23,-0.56, 9.60, 6737
25.06, 101641.77, 0.23,-0.57, 9.64, 6742
25.06, 101641.77, 0.19,-0.56, 9.66, 6747
25.06, 101641.79, 0.21,-0.56, 9.62, 6752
25.06, 101641.79, 0.23,-0.50, 9.66, 6757
25.06, 101641.79, 0.23,-0.56, 9.64, 6762
25.06, 101641.79, 0.19,-0.61, 9.71, 6767
25.06, 101641.79, 0.23,-0.59, 9.73, 6772
25.06, 101641.79, 0.19,-0.50, 9.56, 6780
25.06, 101643.09, 0.19,-0.54, 9.73, 6784
25.06, 101643.09, 0.23,-0.57, 9.69, 6789
25.06, 101643.09, 0.23,-0.52, 9.58, 6794
25.06, 101643.09, 0.23,-0.52, 9.60, 6799
25.06, 101643.09, 0.25,-0.46, 9.66, 6804
25.06, 101643.09, 0.21,-0.54, 9.69, 6809
25.06, 101643.09, 0.17,-0.57, 9.71, 6814
25.06, 101643.09, 0.23,-0.46, 9.66, 6819
25.06, 101640.47, 0.17,-0.56, 9.60, 6824
25.06, 101640.47, 0.13,-0.56, 9.62, 6829
25.06, 101640.47, 0.13,-0.56, 9.62, 6834
25.06, 101640.47, 0.17,-0.56, 9.64, 6839
25.06, 101640.47, 0.21,-0.59, 9.67, 6844
25.06, 101640.47, 0.23,-0.56, 9.67, 6849
25.06, 101640.47, 0.23,-0.59, 9.71, 6854
25.06, 101639.64, 0.13,-0.65, 9.58, 6859
25.06, 101639.64, 0.15,-0.56, 9.75, 6864
25.06, 101639.64, 0.21,-0.57, 9.83, 6869
25.06, 101639.64, 0.21,-0.59, 9.64, 6874
25.06, 101639.64, 0.27,-0.56, 9.52, 6879
25.06, 101639.64, 0.21,-0.57, 9.69, 6884
25.06, 101639.64, 0.23,-0.54, 9.73, 6889
25.06, 101642.70, 0.23,-0.59, 9.71, 6894
25.06, 101642.70, 0.23,-0.56, 9.67, 6899
25.06, 101642.70, 0.21,-0.54, 9.69, 6904
25.06, 101642.70, 0.21,-0.56, 9.67, 6909
25.06, 101642.70, 0.27,-0.57, 9.62, 6914
25.06, 101642.70, 0.25,-0.57, 9.62, 6919
25.06, 101642.70, 0.31,-0.50, 9.60, 6924
25.06, 101643.09, 0.27,-0.52, 9.62, 6929
25.06, 101643.09, 0.23,-0.54, 9.60, 6934
25.06, 101643.09, 0.29,-0.59, 9.67, 6939
25.06, 101643.09, 0.27,-0.52, 9.58, 6944
25.06, 101643.09, 0.17,-0.57, 9.60, 6949
25.06, 101643.09, 0.29,-0.61, 9.62, 6954
25.06, 101643.09, 0.33,-0.61, 9.62, 6959
25.06, 101642.10, 0.31,-0.54, 9.64, 6964
25.06, 101642.10, 0.19,-0.59, 9.58, 6969
25.06, 101642.10, 0.25,-0.57, 9.60, 6974
25.06, 101642.10, 0.23,-0.61, 9.62, 6979
25.06, 101642.10, 0.23,-0.63, 9.62, 6984
25.06, 101642.10, 0.31,-0.63, 9.73, 6989
25.06, 101642.10, 0.31,-0.52, 9.45, 6994
25.06, 101642.70, 0.29,-0.63, 9.52, 6999
25.06, 101642.70, 0.17,-0.56, 9.56, 7004
25.06, 101642.70, 0.27,-0.52, 9.77, 7009
25.06, 101642.70, 0.23,-0.65, 9.77, 7014
25.06, 101642.70, 0.25,-0.61, 9.71, 7019
25.06, 101642.70, 0.17,-0.50, 9.60, 7024
25.06, 101642.70, 0.17,-0.46, 9.56, 7029
25.06, 101640.96, 0.17,-0.54, 9.62, 7034
25.06, 101640.96, 0.23,-0.61, 9.64, 7039
25.06, 101640.96, 0.23,-0.61, 9.71, 7044
25.06, 101640.96, 0.19,-0.54, 9.52, 7049
25.06, 101640.96, 0.23,-0.56, 9.62, 7054
25.06, 101640.96, 0.21,-0.57, 9.75, 7059
25.06, 101640.96, 0.25,-0.73, 9.71, 7064
25.06, 101640.80, 0.31,-0.67, 9.66, 7069
25.06, 101640.80, 0.13,-0.48, 9.46, 7074
25.06, 101640.80, 0.15,-0.52, 9.35, 7079
25.06, 101640.80, 0.27,-0.61, 9.48, 7084
25.06, 101640.80, 0.29,-0.63, 9.69, 7089
25.06, 101640.80, 0.23,-0.59, 9.62, 7094
25.06, 101640.80, 0.31,-0.56, 9.75, 7099
25.06, 101639.08, 0.31,-0.65, 9.79, 7104
25.06, 101639.08, 0.27,-0.63, 9.77, 7109
25.06, 101639.08, 0.29,-0.65, 9.85, 7114
25.06, 101639.08, 0.17,-0.59, 9.66, 7119
25.06, 101639.08, 0.27,-0.52, 9.56, 7124
25.06, 101639.08, 0.21,-0.56, 9.64, 7129
25.06, 101639.08, 0.21,-0.59, 9.58, 7134
25.06, 101639.64, 0.25,-0.52, 9.58, 7139
25.06, 101639.64, 0.21,-0.61, 9.60, 7144
25.06, 101639.64, 0.21,-0.61, 9.62, 7149
25.06, 101639.64, 0.25,-0.61, 9.67, 7154
25.06, 101639.64, 0.25,-0.65, 9.73, 7159
25.06, 101639.64, 0.34,-0.67, 9.79, 7164
25.06, 101639.64, 0.25,-0.57, 9.77, 7169
25.06, 101639.64, 0.29,-0.54, 9.66, 7174
25.06, 101640.73, 0.23,-0.52, 9.66, 7179
25.06, 101640.73, 0.25,-0.52, 9.58, 7184
25.06, 101640.73, 0.27,-0.54, 9.58, 7189
25.06, 101640.73, 0.17,-0.56, 9.56, 7194
25.06, 101640.73, 0.19,-0.57, 9.52, 7199
25.06, 101640.73, 0.23,-0.65, 9.54, 7204
25.06, 101640.73, 0.25,-0.69, 9.58, 7209
25.06, 101639.15, 0.21,-0.67, 9.67, 7214
25.06, 101639.15, 0.23,-0.56, 9.64, 7219
25.06, 101639.15, 0.25,-0.63, 9.83, 7224
25.06, 101639.15, 0.33,-0.48, 9.60, 7229
25.06, 101639.15, 0.33,-0.50, 9.64, 7234
25.06, 101639.15, 0.27,-0.50, 9.60, 7239
25.06, 101639.15, 0.10,-0.54, 9.56, 7244
25.06, 101641.38, 0.13,-0.56, 9.60, 7249
25.06, 101641.38, 0.23,-0.59, 9.75, 7254
25.06, 101641.38, 0.23,-0.65, 9.50, 7259
25.06, 101641.38, 0.17,-0.57, 9.62, 7264
25.06, 101641.38, 0.17,-0.57, 9.64, 7269
25.06, 101641.38, 0.21,-0.61, 9.71, 7274
25.06, 101640.47, 0.23,-0.52, 9.69, 7282
25.06, 101640.47, 0.21,-0.46, 9.64, 7286
25.06, 101640.47, 0.23,-0.46, 9.62, 7291
25.06, 101640.47, 0.25,-0.52, 9.64, 7296
25.06, 101640.47, 0.29,-0.56, 9.54, 7301
25.06, 101640.47, 0.23,-0.65, 9.50, 7306
25.06, 101640.47, 0.23,-0.61, 9.62, 7311
25.06, 101640.47, 0.23,-0.59, 9.58, 7316
25.06, 101638.81, 0.23,-0.71, 9.73, 7321
25.06, 101638.81, 0.31,-0.56, 9.67, 7326
25.06, 101638.81, 0.25,-0.61, 9.75, 7331
25.06, 101638.81, 0.31,-0.61, 9.66, 7336
25.06, 101638.81, 0.27,-0.57, 9.66, 7341
25.06, 101638.81, 0.33,-0.57, 9.71, 7346
25.06, 101638.81, 0.17,-0.44, 9.66, 7351
25.06, 101644.14, 0.15,-0.50, 9.60, 7356
25.06, 101644.14, 0.27,-0.54, 9.66, 7361
25.06, 101644.14, 0.27,-0.56, 9.56, 7366
25.06, 101644.14, 0.27,-0.63, 9.62, 7371
25.06, 101644.14, 0.29,-0.59, 9.64, 7376
25.06, 101644.14, 0.23,-0.59, 9.62, 7381
25.06, 101644.14, 0.23,-0.59, 9.60, 7386
25.06, 101642.59, 0.21,-0.57, 9.66, 7391
25.06, 101642.59, 0.21,-0.57, 9.66, 7396
25.06, 101642.59, 0.19,-0.54, 9.64, 7401
25.06, 101642.59, 0.15,-0.56, 9.67, 7406
25.06, 101642.59, 0.17,-0.52, 9.64, 7411
25.06, 101642.59, 0.23,-0.56, 9.64, 7416
25.06, 101642.59, 0.21,-0.56, 9.64, 7421
25.06, 101640.45, 0.21,-0.65, 9.75, 7426
25.06, 101640.45, 0.27,-0.63, 9.56, 7431
25.06, 101640.45, 0.31,-0.54, 9.60, 7436
25.06, 101640.45, 0.27,-0.52, 9.58, 7441
25.06, 101640.45, 0.33,-0.56, 9.66, 7446
25.06, 101640.45, 0.21,-0.50, 9.56, 7451
25.06, 101640.45, 0.13,-0.46, 9.71, 7456
25.06, 101640.12, 0.27,-0.52, 9.67, 7461
25.06, 101640.12, 0.36,-0.54, 9.67, 7466
25.06, 101640.89, 0.34,-0.61, 9.67, 7542
25.06, 101640.89, 0.15,-0.57, 9.69, 7547
25.06, 101640.89, 0.17,-0.59, 9.60, 7552
25.06, 101640.89, 0.21,-0.57, 9.62, 7557
25.06, 101640.89, 0.21,-0.56, 9.62, 7562
25.06, 101641.94, 0.29,-0.54, 9.60, 7567
25.06, 101641.94, 0.27,-0.57, 9.66, 7572
25.06, 101641.94, 0.23,-0.54, 9.64, 7577
25.06, 101641.94, 0.25,-0.57, 9.66, 7582
25.06, 101641.94, 0.17,-0.59, 9.62, 7587
25.06, 101641.94, 0.21,-0.56, 9.64, 7592
25.06, 101641.94, 0.21,-0.57, 9.67, 7597
25.06, 101642.27, 0.15,-0.57, 9.64, 7602
25.06, 101642.27, 0.21,-0.63, 9.66, 7607
25.06, 101642.27, 0.29,-0.46, 9.64, 7612
25.06, 101642.27, 0.31,-0.65, 9.62, 7617
25.06, 101642.27, 0.25,-0.54, 9.48, 7622
25.06, 101642.27, 0.31,-0.52, 9.50, 7627
25.06, 101642.27, 0.27,-0.50, 9.71, 7632
25.06, 101638.16, 0.29,-0.56, 9.60, 7637
25.06, 101638.16, 0.23,-0.56, 9.67, 7642
25.06, 101638.16, 0.27,-0.52, 9.69, 7647
25.06, 101638.16, 0.27,-0.63, 9.62, 7652
25.06, 101638.16, 0.33,-0.56, 9.58, 7657
25.06, 101638.16, 0.27,-0.56, 9.60, 7662
25.06, 101638.16, 0.25,-0.61, 9.58, 7667
25.06, 101641.22, 0.23,-0.56, 9.62, 7672
25.06, 101641.22, 0.19,-0.57, 9.60, 7677
25.06, 101641.22, 0.21,-0.57, 9.69, 7682
25.06, 101641.22, 0.21,-0.54, 9.66, 7687
25.06, 101641.22, 0.15,-0.56, 9.69, 7692
25.06, 101641.22, 0.25,-0.54, 9.71, 7697
25.06, 101641.22, 0.19,-0.54, 9.64, 7702
25.06, 101641.88, 0.19,-0.56, 9.62, 7707
25.06, 101641.88, 0.23,-0.61, 9.60, 7712
25.06, 101641.88, 0.21,-0.61, 9.60, 7717
25.06, 101641.88, 0.19,-0.65, 9.66, 7722
25.06, 101641.88, 0.19,-0.54, 9.52, 7727
25.06, 101641.88, 0.31,-0.57, 9.52, 7732
25.06, 101641.88, 0.29,-0.54, 9.58, 7737
25.06, 101640.40, 0.25,-0.59, 9.54, 7742
25.06, 101640.40, 0.23,-0.56, 9.71, 7747
25.06, 101640.40, 0.23,-0.59, 9.54, 7752
25.06, 101640.40, 0.21,-0.59, 9.85, 7757
25.06, 101640.40, 0.29,-0.56, 9.67, 7762
25.06, 101640.40, 0.27,-0.52, 9.69, 7767
25.06, 101640.40, 0.25,-0.54, 9.71, 7772
25.06, 101640.40, 0.23,-0.54, 9.58, 7777
25.06, 101643.70, 0.21,-0.57, 9.62, 7782
25.06, 101643.70, 0.21,-0.57, 9.56, 7787
25.06, 101643.70, 0.23,-0.56, 9.56, 7792
25.06, 101643.70, 0.17,-0.57, 9.58, 7797
25.06, 101643.70, 0.29,-0.52, 9.69, 7802
25.06, 101643.70, 0.21,-0.48, 9.64, 7807
25.06, 101643.70, 0.25,-0.54, 9.67, 7812
25.06, 101642.10, 0.17,-0.56, 9.66, 7817
25.06, 101642.10, 0.21,-0.59, 9.60, 7822
25.06, 101642.10, 0.25,-0.56, 9.62, 7827
25.06, 101642.10, 0.31,-0.59, 9.66, 7832
25.06, 101642.10, 0.23,-0.61, 9.64, 7837
25.06, 101642.10, 0.17,-0.56, 9.62, 7842
25.06, 101642.10, 0.23,-0.59, 9.64, 7847
25.06, 101642.88, 0.21,-0.63, 9.56, 7857
25.06, 101642.88, 0.15,-0.56, 9.60, 7861
25.06, 101642.88, 0.21,-0.61, 9.71, 7866
25.06, 101642.88, 0.21,-0.56, 9.62, 7871
25.06, 101642.88, 0.13,-0.52, 9.60, 7876
25.06, 101642.88, 0.10,-0.56, 9.64, 7881
25.06, 101641.77, 0.23,-0.59, 9.66, 7886
25.06, 101641.77, 0.29,-0.59, 9.69, 7891
25.06, 101641.77, 0.25,-0.57, 9.64, 7896
25.06, 101641.77, 0.15,-0.61, 9.62, 7901
25.06, 101641.77, 0.27,-0.65, 9.66, 7906
25.06, 101641.77, 0.27,-0.61, 9.64, 7911
25.06, 101641.77, 0.25,-0.56, 9.62, 7916
25.06, 101643.09, 0.27,-0.50, 9.62, 7921
25.06, 101643.09, 0.21,-0.50, 9.66, 7926
25.06, 101643.09, 0.25,-0.57, 9.64, 7931
25.06, 101643.09, 0.23,-0.56, 9.73, 7936
25.06, 101643.09, 0.23,-0.54, 9.62, 7941
25.06, 101643.09, 0.25,-0.52, 9.56, 7946
25.06, 101643.09, 0.19,-0.61, 9.67, 7951
25.06, 101643.87, 0.13,-0.59, 9.54, 7956
25.06, 101643.87, 0.21,-0.65, 9.73, 7961
25.06, 101643.87, 0.25,-0.52, 9.52, 7966
25.06, 101643.87, 0.21,-0.56, 9.79, 7971
25.06, 101643.87, 0.19,-0.52, 9.52, 7976
25.06, 101643.87, 0.17,-0.59, 9.58, 7981
25.06, 101643.87, 0.23,-0.59, 9.62, 7986
25.06, 101640.78, 0.21,-0.56, 9.67, 7991
25.06, 101640.78, 0.23,-0.50, 9.66, 7996
25.06, 101640.78, 0.13,-0.50, 9.67, 8001
25.06, 101640.78, 0.13,-0.57, 9.67, 8006
25.06, 101640.78, 0.17,-0.63, 9.60, 8011
25.06, 101640.78, 0.23,-0.59, 9.62, 8016
25.06, 101640.78, 0.23,-0.57, 9.64, 8021
25.06, 101644.03, 0.27,-0.52, 9.60, 8026
25.06, 101644.03, 0.17,-0.57, 9.64, 8031
25.06, 101644.03, 0.21,-0.65, 9.60, 8036
25.06, 101644.03, 0.23,-0.54, 9.64, 8041
25.06, 101644.03, 0.27,-0.54, 9.58, 8046
25.06, 101644.03, 0.33,-0.56, 9.64, 8051
25.06, 101644.03, 0.31,-0.56, 9.60, 8056
25.06, 101644.03, 0.29,-0.52, 9.67, 8061
25.06, 101640.45, 0.31,-0.57, 9.67, 8066
25.06, 101640.45, 0.25,-0.52, 9.69, 8071
25.06, 101640.45, 0.23,-0.65, 9.71, 8076
25.06, 101640.45, 0.23,-0.56, 9.67, 8081
25.06, 101640.45, 0.23,-0.59, 9.67, 8086
25.06, 101640.45, 0.25,-0.54, 9.64, 8091
25.06, 101640.45, 0.27,-0.54, 9.64, 8096
25.06, 101642.98, 0.27,-0.48, 9.75, 8101
25.06, 101642.98, 0.19,-0.61, 9.64, 8106
25.06, 101642.98, 0.19,-0.48, 9.66, 8111
25.06, 101642.98, 0.10,-0.50, 9.56, 8116
25.06, 101642.98, 0.13,-0.54, 9.64, 8121
25.06, 101642.98, 0.19,-0.59, 9.69, 8126
25.06, 101642.98, 0.17,-0.57, 9.69, 8131
25.06, 101641.38, 0.25,-0.54, 9.60, 8136
25.06, 101641.38, 0.23,-0.57, 9.64, 8141
25.06, 101641.38, 0.21,-0.63, 9.66, 8146
25.06, 101641.38, 0.15,-0.57, 9.67, 8151
25.06, 101641.38, 0.15,-0.57, 9.62, 8156
25.06, 101641.38, 0.13,-0.61, 9.64, 8161
25.06, 101641.38, 0.13,-0.59, 9.60, 8166
25.06, 101641.45, 0.19,-0.56, 9.66, 8171
25.06, 101641.45, 0.27,-0.52, 9.66, 8176
25.06, 101641.45, 0.17,-0.54, 9.66, 8181
25.06, 101641.45, 0.25,-0.56, 9.64, 8186
25.06, 101641.45, 0.27,-0.56, 9.73, 8191
25.06, 101641.45, 0.19,-0.54, 9.56, 8196
25.06, 101641.45, 0.23,-0.54, 9.79, 8201
25.06, 101642.88, 0.23,-0.63, 9.56, 8206
25.06, 101642.88, 0.19,-0.54, 9.45, 8211
25.06, 101642.88, 0.19,-0.57, 9.64, 8216
25.06, 101642.88, 0.17,-0.75, 9.64, 8221
25.06, 101642.88, 0.21,-0.34, 9.50, 8226
25.06, 101642.88, 0.31,-0.46, 9.66, 8231
25.06, 101642.88, 0.27,-0.54, 9.69, 8236
25.06, 101642.00, 0.29,-0.50, 9.64, 8241
25.06, 101642.00, 0.23,-0.56, 9.69, 8246
25.06, 101642.00, 0.23,-0.54, 9.60, 8251
25.06, 101642.00, 0.25,-0.57, 9.50, 8256
25.06, 101642.00, 0.15,-0.56, 9.66, 8261
25.06, 101642.00, 0.17,-0.59, 9.67, 8266
25.06, 101642.00, 0.23,-0.61, 9.66, 8271
25.06, 101641.11, 0.08,-0.59, 9.66, 8276
25.06, 101641.11, 0.13,-0.54, 9.64, 8281
25.06, 101641.11, 0.19,-0.57, 9.66, 8286
25.06, 101641.11, 0.23,-0.59, 9.66, 8291
25.06, 101641.11, 0.21,-0.56, 9.64, 8296
25.06, 101641.11, 0.23,-0.52, 9.64, 8301
25.06, 101641.11, 0.21,-0.57, 9.67, 8306
25.06, 101641.28, 0.21,-0.61, 9.66, 8311
25.06, 101641.28, 0.23,-0.59, 9.64, 8316
25.06, 101641.28, 0.25,-0.54, 9.69, 8321
25.06, 101641.28, 0.27,-0.50, 9.64, 8326
25.06, 101641.28, 0.19,-0.65, 9.56, 8331
25.06, 101641.28, 0.23,-0.71, 9.67, 8336
25.06, 101641.28, 0.23,-0.57, 9.71, 8341
25.06, 101645.36, 0.19,-0.46, 9.83, 8346
25.06, 101645.36, 0.21,-0.65, 9.64, 8351
25.06, 101645.36, 0.29,-0.63, 9.71, 8359
25.06, 101645.36, 0.25,-0.59, 9.64, 8363
25.06, 101645.36, 0.27,-0.52, 9.64, 8368
25.06, 101645.36, 0.25,-0.56, 9.66, 8373
25.06, 101645.36, 0.31,-0.59, 9.60, 8378
25.06, 101641.28, 0.29,-0.54, 9.66, 8383
25.06, 101641.28, 0.27,-0.54, 9.69, 8388
25.06, 101641.28, 0.23,-0.54, 9.67, 8393
25.06, 101641.28, 0.29,-0.50, 9.62, 8398
25.06, 101641.28, 0.31,-0.52, 9.66, 8403
25.06, 101641.28, 0.25,-0.57, 9.62, 8408
25.06, 101641.28, 0.29,-0.57, 9.67, 8413
25.06, 101642.38, 0.27,-0.59, 9.60, 8418
25.06, 101642.38, 0.23,-0.54, 9.64, 8423
25.06, 101642.38, 0.25,-0.59, 9.64, 8428
25.06, 101642.38, 0.31,-0.50, 9.66, 8433
25.06, 101642.38, 0.21,-0.57, 9.60, 8438
25.06, 101642.38, 0.23,-0.59, 9.75, 8443
25.06, 101642.38, 0.19,-0.50, 9.66, 8448
25.06, 101640.84, 0.27,-0.59, 9.79, 8453
25.06, 101640.84, 0.27,-0.56, 9.56, 8458
25.06, 101640.84, 0.27,-0.54, 9.45, 8463
25.06, 101640.84, 0.21,-0.57, 9.45, 8468
25.06, 101640.84, 0.25,-0.61, 9.20, 8473
25.06, 101640.84, 0.33,-0.67, 9.54, 8478
25.06, 101640.84, 0.25,-0.57, 9.56, 8483
25.06, 101643.92, 0.27,-0.50, 9.52, 8488
25.06, 101643.92, 0.27,-0.54, 9.64, 8493
25.06, 101643.92, 0.21,-0.59, 9.64, 8498
25.06, 101643.92, 0.29,-0.59, 9.64, 8503
25.06, 101643.92, 0.25,-0.57, 9.71, 8508
25.06, 101643.92, 0.25,-0.57, 9.64, 8513
25.06, 101643.92, 0.25,-0.57, 9.58, 8518
25.06, 101641.94, 0.27,-0.61, 9.58, 8523
25.06, 101641.94, 0.23,-0.57, 9.60, 8528
25.06, 101641.94, 0.21,-0.59, 9.67, 8533
25.06, 101641.94, 0.23,-0.57, 9.62, 8538
25.06, 101641.94, 0.27,-0.59, 9.64, 8543
25.06, 101641.94, 0.29,-0.61, 9.64, 8548
25.06, 101641.94, 0.23,-0.56, 9.56, 8553
25.06, 101641.94, 0.21,-0.57, 9.64, 8558
25.06, 101640.95, 0.19,-0.57, 9.69, 8563
25.06, 101640.95, 0.21,-0.61, 9.71, 8568
25.06, 101640.95, 0.23,-0.54, 9.56, 8573
25.06, 101640.95, 0.27,-0.56, 9.45, 8578
25.06, 101640.95, 0.31,-0.59, 9.33, 8583
25.06, 101640.95, 0.31,-0.57, 9.64, 8588
25.06, 101640.95, 0.21,-0.56, 9.64, 8593
25.06, 101641.28, 0.19,-0.54, 9.79, 8598
25.06, 101641.28, 0.25,-0.59, 9.77, 8603
25.06, 101641.28, 0.25,-0.59, 9.69, 8608
25.06, 101641.28, 0.21,-0.59, 9.67, 8613
25.06, 101641.28, 0.21,-0.54, 9.60, 8618
25.06, 101641.28, 0.21,-0.57, 9.66, 8623
25.06, 101641.28, 0.25,-0.61, 9.66, 8628
25.06, 101641.34, 0.23,-0.63, 9.66, 8633
25.06, 101641.34, 0.17,-0.52, 9.66, 8638
25.06, 101641.34, 0.21,-0.57, 9.62, 8643
25.06, 101641.34, 0.19,-0.56, 9.62, 8648
25.06, 101641.34, 0.27,-0.52, 9.60, 8653
25.06, 101641.34, 0.19,-0.54, 9.60, 8658
25.06, 101641.34, 0.19,-0.56, 9.73, 8663
25.06, 101644.36, 0.23,-0.63, 9.66, 8668
25.06, 101644.36, 0.27,-0.59, 9.58, 8673
25.06, 101644.36, 0.15,-0.54, 9.67, 8678
25.06, 101644.36, 0.21,-0.54, 9.83, 8683
25.06, 101644.36, 0.19,-0.63, 9.52, 8688
25.06, 101644.36, 0.13,-0.57, 9.64, 8693
25.06, 101644.36, 0.13,-0.65, 9.92, 8698
25.06, 101643.92, 0.29,-0.69, 9.54, 8703
25.06, 101643.92, 0.29,-0.56, 9.54, 8708
25.06, 101643.92, 0.27,-0.54, 9.64, 8713
25.06, 101643.92, 0.25,-0.61, 9.62, 8718
25.06, 101643.92, 0.19,-0.56, 9.64, 8723
25.06, 101643.92, 0.19,-0.57, 9.64, 8728
25.06, 101643.92, 0.17,-0.57, 9.64, 8733
25.06, 101641.05, 0.27,-0.54, 9.66, 8738
25.06, 101641.05, 0.19,-0.56, 9.62, 8743
25.06, 101641.05, 0.29,-0.57, 9.64, 8748
25.06, 101641.05, 0.23,-0.57, 9.71, 8753
25.06, 101641.05, 0.19,-0.56, 9.67, 8758
25.06, 101641.05, 0.21,-0.59, 9.64, 8763
25.06, 101641.05, 0.15,-0.52, 9.62, 8768
25.06, 101643.21, 0.17,-0.57, 9.69, 8773
25.06, 101643.21, 0.23,-0.56, 9.62, 8778
25.06, 101643.21, 0.25,-0.57, 9.66, 8783
25.06, 101643.21, 0.25,-0.50, 9.62, 8788
25.06, 101643.21, 0.25,-0.56, 9.54, 8793
25.06, 101643.21, 0.23,-0.61, 9.64, 8798
25.06, 101643.21, 0.23,-0.54, 9.60, 8803
25.06, 101642.59, 0.25,-0.56, 9.66, 8808
25.06, 101642.59, 0.29,-0.63, 9.58, 8813
25.06, 101642.59, 0.33,-0.65, 9.71, 8818
25.06, 101642.59, 0.29,-0.56, 9.60, 8823
25.06, 101642.59, 0.29,-0.56, 9.60, 8828
25.06, 101642.59, 0.23,-0.52, 9.83, 8833
25.06, 101642.59, 0.25,-0.59, 9.73, 8838
25.06, 101643.31, 0.25,-0.56, 9.58, 8843
25.06, 101643.31, 0.23,-0.57, 9.60, 8848
25.06, 101643.31, 0.23,-0.57, 9.67, 8853
25.06, 101643.31, 0.19,-0.61, 9.73, 8864
25.06, 101643.31, 0.13,-0.61, 9.62, 8869
25.06, 101643.31, 0.23,-0.63, 9.69, 8874
25.06, 101640.95, 0.21,-0.59, 9.64, 8879
25.06, 101640.95, 0.25,-0.67, 9.66, 8884
25.06, 101640.95, 0.33,-0.57, 9.60, 8889
25.06, 101640.95, 0.21,-0.57, 9.66, 8894
25.06, 101640.95, 0.23,-0.56, 9.60, 8899
25.06, 101640.95, 0.23,-0.63, 9.66, 8904
25.06, 101640.95, 0.21,-0.61, 9.62, 8909
25.06, 101639.46, 0.17,-0.59, 9.64, 8914
25.06, 101639.46, 0.31,-0.52, 9.64, 8919
25.06, 101639.46, 0.27,-0.57, 9.60, 8924
25.06, 101639.46, 0.25,-0.54, 9.66, 8929
25.06, 101639.46, 0.23,-0.57, 9.62, 8934
25.06, 101639.46, 0.21,-0.57, 9.54, 8939
25.06, 101639.46, 0.19,-0.48, 9.66, 8944
25.06, 101641.11, 0.23,-0.50, 9.69, 8949
25.06, 101641.11, 0.15,-0.59, 9.62, 8954
25.06, 101641.11, 0.21,-0.63, 9.58, 8959
25.06, 101641.11, 0.27,-0.54, 9.62, 8964
25.06, 101641.11, 0.25,-0.57, 9.67, 8969
25.06, 101641.11, 0.21,-0.52, 9.62, 8974
25.06, 101641.11, 0.23,-0.56, 9.62, 8979
25.06, 101641.11, 0.25,-0.63, 9.83, 8984
25.06, 101644.31, 0.27,-0.61, 9.69, 8989
25.06, 101644.31, 0.19,-0.63, 9.62, 8994
25.06, 101644.31, 0.29,-0.56, 9.64, 8999
25.06, 101644.31, 0.25,-0.57, 9.67, 9004
25.06, 101644.31, 0.17,-0.59, 9.60, 9009
25.06, 101644.31, 0.25,-0.56, 9.58, 9014
25.06, 101644.31, 0.27,-0.52, 9.56, 9019
25.06, 101641.89, 0.17,-0.56, 9.58, 9024
25.06, 101641.89, 0.17,-0.67, 9.54, 9029
25.06, 101641.89, 0.21,-0.61, 9.56, 9034
25.06, 101641.89, 0.15,-0.61, 9.71, 9039
25.06, 101641.89, 0.23,-0.61, 9.62, 9044
25.06, 101641.89, 0.19,-0.52, 9.56, 9049
25.06, 101641.89, 0.17,-0.56, 9.81, 9054
25.06, 101638.70, 0.21,-0.59, 9.62, 9059
25.06, 101638.70, 0.19,-0.54, 9.56, 9064
25.06, 101638.70, 0.21,-0.48, 9.69, 9069
25.06, 101638.70, 0.17,-0.52, 9.75, 9074
25.06, 101638.70, 0.15,-0.54, 9.58, 9079
25.06, 101638.70, 0.23,-0.54, 9.58, 9084
25.06, 101638.70, 0.29,-0.54, 9.71, 9089
25.06, 101641.83, 0.21,-0.56, 9.85, 9094
25.06, 101641.83, 0.19,-0.52, 9.60, 9099
25.06, 101641.83, 0.23,-0.65, 9.45, 9104
25.06, 101641.83, 0.19,-0.52, 9.71, 9109
25.06, 101641.83, 0.23,-0.50, 9.79, 9114
25.06, 101641.83, 0.21,-0.52, 9.77, 9119
25.06, 101641.83, 0.27,-0.52, 9.64, 9124
25.06, 101642.22, 0.27,-0.59, 9.54, 9129
25.06, 101642.22, 0.23,-0.54, 9.58, 9134
25.06, 101642.22, 0.21,-0.61, 9.58, 9139
25.06, 101642.22, 0.21,-0.54, 9.64, 9144
25.06, 101642.22, 0.17,-0.57, 9.66, 9149
25.06, 101642.22, 0.23,-0.56, 9.66, 9154
25.06, 101642.22, 0.29,-0.50, 9.62, 9159
25.06, 101641.34, 0.27,-0.57, 9.56, 9164
25.06, 101641.34, 0.27,-0.59, 9.62, 9169
25.06, 101641.34, 0.25,-0.56, 9.62, 9174
25.06, 101641.34, 0.33,-0.50, 9.62, 9179
25.06, 101641.34, 0.21,-0.56, 9.71, 9184
25.06, 101641.34, 0.25,-0.57, 9.66, 9189
25.06, 101641.34, 0.25,-0.59, 9.62, 9194
25.06, 101640.78, 0.29,-0.57, 9.67, 9199
25.06, 101640.78, 0.21,-0.56, 9.64, 9204
25.06, 101640.78, 0.23,-0.54, 9.62, 9209
25.06, 101640.78, 0.17,-0.63, 9.69, 9214
25.06, 101640.78, 0.19,-0.63, 9.52, 9219
25.06, 101640.78, 0.27,-0.50, 9.62, 9224
25.06, 101640.78, 0.27,-0.57, 9.62, 9229
25.06, 101639.14, 0.29,-0.63, 9.67, 9234
25.06, 101639.14, 0.21,-0.57, 9.75, 9239
25.06, 101639.14, 0.33,-0.57, 9.73, 9244
25.06, 101639.14, 0.29,-0.59, 9.66, 9249
25.06, 101639.14, 0.17,-0.54, 9.67, 9254
25.06, 101639.14, 0.27,-0.63, 9.67, 9259
25.06, 101639.14, 0.23,-0.57, 9.60, 9264
25.06, 101642.59, 0.27,-0.57, 9.52, 9269
25.06, 101642.59, 0.21,-0.59, 9.69, 9274
25.06, 101642.59, 0.25,-0.57, 9.66, 9279
25.06, 101642.59, 0.33,-0.65, 9.62, 9284
25.06, 101642.59, 0.27,-0.67, 9.58, 9289
25.06, 101642.59, 0.33,-0.59, 9.56, 9294
25.06, 101642.59, 0.27,-0.50, 9.58, 9299
25.06, 101642.82, 0.31,-0.54, 9.58, 9304
25.06, 101642.82, 0.25,-0.54, 9.66, 9309
25.06, 101642.82, 0.25,-0.57, 9.69, 9314
25.06, 101642.82, 0.21,-0.59, 9.66, 9319
25.06, 101642.82, 0.19,-0.57, 9.58, 9324
25.06, 101642.82, 0.33,-0.56, 9.41, 9329
25.06, 101642.82, 0.25,-0.52, 9.52, 9334
25.06, 101643.55, 0.15,-0.57, 9.67, 9339
25.06, 101643.55, 0.15,-0.50, 9.69, 9344
25.06, 101643.55, 0.29,-0.57, 9.66, 9349
25.06, 101643.55, 0.31,-0.61, 9.56, 9354
25.06, 101643.55, 0.27,-0.57, 9.67, 9359
25.06, 101643.55, 0.21,-0.50, 9.56, 9367
25.06, 101643.55, 0.21,-0.56, 9.64, 9371
25.06, 101643.05, 0.19,-0.56, 9.67, 9376
25.06, 101643.05, 0.15,-0.56, 9.64, 9381
25.06, 101643.05, 0.19,-0.54, 9.62, 9386
25.06, 101643.05, 0.19,-0.61, 9.58, 9391
25.06, 101643.05, 0.27,-0.57, 9.54, 9396
25.06, 101643.05, 0.25,-0.56, 9.64, 9401
25.06, 101643.05, 0.23,-0.56, 9.64, 9406
25.06, 101642.22, 0.25,-0.54, 9.60, 9411
25.06, 101642.22, 0.27,-0.56, 9.73, 9416
25.06, 101642.22, 0.29,-0.54, 9.58, 9421
25.06, 101642.22, 0.23,-0.59, 9.54, 9426
25.06, 101642.22, 0.23,-0.54, 9.58, 9431
25.06, 101642.22, 0.21,-0.65, 9.64, 9436
25.06, 101642.22, 0.29,-0.56, 9.50, 9441
25.06, 101639.19, 0.34,-0.46, 9.43, 9446
25.06, 101639.19, 0.31,-0.50, 9.60, 9451
25.06, 101639.19, 0.25,-0.59, 9.67, 9456
25.06, 101639.19, 0.21,-0.50, 9.64, 9461
25.06, 101639.19, 0.27,-0.57, 9.66, 9466
25.06, 101639.19, 0.25,-0.65, 9.66, 9471
25.06, 101639.19, 0.19,-0.61, 9.67, 9476
25.06, 101640.29, 0.17,-0.59, 9.73, 9481
25.06, 101640.29, 0.19,-0.61, 9.64, 9486
25.06, 101640.29, 0.27,-0.59, 9.69, 9491
25.06, 101640.29, 0.19,-0.57, 9.58, 9496
25.06, 101640.29, 0.17,-0.67, 9.71, 9501
25.06, 101640.29, 0.21,-0.57, 9.67, 9506
25.06, 101640.29, 0.19,-0.61, 9.69, 9511
25.06, 101640.29, 0.15,-0.57, 9.64, 9516
25.06, 101641.72, 0.19,-0.63, 9.64, 9521
25.06, 101641.72, 0.23,-0.59, 9.60, 9526
25.06, 101641.72, 0.21,-0.61, 9.67, 9531
25.06, 101641.72, 0.25,-0.59, 9.54, 9536
25.06, 101641.72, 0.23,-0.59, 9.54, 9541
25.06, 101641.72, 0.25,-0.54, 9.67, 9546
25.06, 101641.72, 0.15,-0.52, 9.56, 9551
25.06, 101640.02, 0.15,-0.56, 9.64, 9556
25.06, 101640.02, 0.17,-0.50, 9.69, 9561
25.06, 101640.02, 0.23,-0.63, 9.71, 9566
25.06, 101640.02, 0.19,-0.57, 9.62, 9571
25.06, 101640.02, 0.21,-0.57, 9.50, 9576
25.06, 101640.02, 0.21,-0.61, 9.64, 9581
25.06, 101640.02, 0.27,-0.59, 9.67, 9586
25.06, 101642.38, 0.21,-0.63, 9.64, 9591
25.06, 101642.38, 0.27,-0.63, 9.69, 9596
25.06, 101642.38, 0.27,-0.56, 9.62, 9601
25.06, 101642.38, 0.17,-0.54, 9.58, 9606
25.06, 101642.38, 0.29,-0.54, 9.64, 9611
25.06, 101642.38, 0.29,-0.59, 9.73, 9616
25.06, 101642.38, 0.31,-0.61, 9.67, 9621
25.06, 101641.17, 0.29,-0.67, 9.66, 9626
25.06, 101641.17, 0.33,-0.63, 9.69, 9631
25.06, 101641.17, 0.27,-0.56, 9.64, 9636
25.06, 101641.17, 0.27,-0.54, 9.58, 9641
25.06, 101641.17, 0.25,-0.57, 9.58, 9646
25.06, 101641.17, 0.29,-0.52, 9.60, 9651
25.06, 101641.17, 0.23,-0.56, 9.60, 9656
25.06, 101642.66, 0.21,-0.61, 9.52, 9661
25.06, 101642.66, 0.27,-0.50, 9.67, 9666
25.06, 101642.66, 0.21,-0.52, 9.58, 9671
25.06, 101642.66, 0.23,-0.65, 9.66, 9676
25.06, 101642.66, 0.21,-0.52, 9.79, 9681
25.06, 101642.66, 0.25,-0.54, 9.81, 9686
25.06, 101642.66, 0.21,-0.61, 9.60, 9691
25.06, 101639.62, 0.27,-0.63, 9.60, 9696
25.06, 101639.62, 0.17,-0.67, 9.56, 9701
25.06, 101639.62, 0.19,-0.59, 9.71, 9706
25.06, 101639.62, 0.23,-0.69, 9.73, 9711
25.06, 101639.62, 0.19,-0.59, 9.64, 9716
25.06, 101639.62, 0.19,-0.59, 9.73, 9721
25.06, 101639.62, 0.19,-0.50, 9.69, 9726
25.06, 101639.95, 0.17,-0.52, 9.67, 9731
25.06, 101639.95, 0.21,-0.56, 9.66, 9736
25.06, 101639.95, 0.23,-0.56, 9.66, 9741
25.06, 101639.95, 0.19,-0.59, 9.62, 9746
25.06, 101639.95, 0.23,-0.63, 9.52, 9751
25.06, 101639.95, 0.29,-0.57, 9.64, 9756
25.06, 101639.95, 0.25,-0.59, 9.60, 9761
25.06, 101639.73, 0.19,-0.56, 9.56, 9766
25.06, 101639.73, 0.21,-0.59, 9.52, 9771
25.06, 101639.73, 0.31,-0.52, 9.58, 9776
25.06, 101639.73, 0.29,-0.48, 9.56, 9781
25.06, 101639.73, 0.25,-0.57, 9.60, 9786
25.06, 101639.73, 0.19,-0.59, 9.66, 9791
25.06, 101639.73, 0.23,-0.54, 9.62, 9796
25.06, 101640.29, 0.29,-0.56, 9.56, 9801
25.06, 101640.29, 0.27,-0.57, 9.62, 9806
25.06, 101640.29, 0.27,-0.54, 9.60, 9811
25.06, 101640.29, 0.25,-0.65, 9.54, 9816
25.06, 101640.29, 0.27,-0.57, 9.56, 9821
25.06, 101640.29, 0.25,-0.59, 9.54, 9826
25.06, 101640.29, 0.25,-0.59, 9.60, 9831
25.06, 101640.45, 0.23,-0.57, 9.69, 9836
25.06, 101640.45, 0.21,-0.56, 9.66, 9841
25.06, 101640.45, 0.21,-0.59, 9.58, 9846
25.06, 101640.45, 0.23,-0.59, 9.64, 9851
25.06, 101640.45, 0.21,-0.59, 9.62, 9856
25.06, 101640.45, 0.17,-0.56, 9.62, 9861
25.06, 101640.45, 0.23,-0.56, 9.56, 9869
25.06, 101643.70, 0.23,-0.57, 9.50, 9873
25.06, 101643.70, 0.25,-0.50, 9.60, 9878
25.06, 101643.70, 0.21,-0.56, 9.87, 9883
25.06, 101643.70, 0.21,-0.57, 9.60, 9888
25.06, 101643.70, 0.21,-0.57, 9.77, 9893
25.06, 101643.70, 0.23,-0.61, 9.69, 9898
25.06, 101643.70, 0.36,-0.48, 9.56, 9903
25.06, 101641.83, 0.25,-0.54, 9.58, 9908
25.06, 101641.83, 0.23,-0.57, 9.67, 9913
25.06, 101641.83, 0.23,-0.67, 9.66, 9918
25.06, 101641.83, 0.21,-0.54, 9.69, 9923
25.06, 101641.83, 0.23,-0.56, 9.58, 9928
25.06, 101641.83, 0.21,-0.56, 9.58, 9933
25.06, 101641.83, 0.27,-0.59, 9.60, 9938
25.06, 101642.05, 0.27,-0.59, 9.62, 9943
25.06, 101642.05, 0.23,-0.63, 9.60, 9948
25.06, 101642.05, 0.23,-0.63, 9.64, 9953
25.06, 101642.05, 0.23,-0.54, 9.64, 9958
25.06, 101642.05, 0.27,-0.54, 9.64, 9963
25.06, 101642.05, 0.27,-0.56, 9.62, 9968
25.06, 101642.05, 0.33,-0.61, 9.62, 9973
25.06, 101643.70, 0.21,-0.56, 9.67, 9978
25.06, 101643.70, 0.34,-0.56, 9.66, 9983
25.06, 101643.70, 0.27,-0.56, 9.50, 9988
25.06, 101643.70, 0.23,-0.63, 9.46, 9993
25.06, 101643.70, 0.19,-0.57, 9.50, 9998
25.06, 101643.70, 0.23,-0.56, 9.58, 10003
25.06, 101643.70, 0.17,-0.54, 9.25, 10008
25.06, 101643.70, 0.15,-0.54, 9.52, 10013
25.06, 101643.05, 0.25,-0.48, 9.66, 10018
25.06, 101643.05, 0.21,-0.57, 9.71, 10023
25.06, 101643.05, 0.25,-0.56, 9.73, 10028
25.06, 101643.05, 0.25,-0.57, 9.67, 10033
25.06, 101643.05, 0.29,-0.61, 9.67, 10038
25.06, 101643.05, 0.25,-0.57, 9.66, 10043
25.06, 101643.05, 0.29,-0.56, 9.60, 10048
25.06, 101643.87, 0.21,-0.59, 9.69, 10053
25.06, 101643.87, 0.25,-0.59, 9.64, 10058
25.06, 101643.87, 0.23,-0.65, 9.62, 10063
25.06, 101643.87, 0.19,-0.56, 9.67, 10068
25.06, 101643.87, 0.25,-0.52, 9.69, 10073
25.06, 101643.87, 0.21,-0.50, 9.67, 10078
25.06, 101643.87, 0.21,-0.63, 9.62, 10083
25.06, 101641.11, 0.29,-0.56, 9.62, 10088
25.06, 101641.11, 0.23,-0.57, 9.73, 10093
25.06, 101641.11, 0.25,-0.63, 9.81, 10098
25.06, 101641.11, 0.33,-0.59, 9.52, 10103
25.06, 101641.11, 0.25,-0.50, 9.58, 10108
25.06, 101641.11, 0.25,-0.61, 9.71, 10113
25.06, 101641.11, 0.21,-0.65, 9.67, 10118
25.06, 101642.05, 0.33,-0.50, 9.64, 10123
25.06, 101642.05, 0.23,-0.56, 9.56, 10128
25.06, 101642.05, 0.27,-0.65, 9.62, 10133
25.06, 101642.05, 0.29,-0.54, 9.66, 10138
25.06, 101642.05, 0.27,-0.57, 9.60, 10143
25.06, 101642.05, 0.21,-0.50, 9.67, 10148
25.06, 101642.05, 0.19,-0.54, 9.64, 10153
25.06, 101640.78, 0.23,-0.56, 9.60, 10158
25.06, 101640.78, 0.21,-0.59, 9.62, 10163
25.06, 101640.78, 0.23,-0.56, 9.66, 10168
25.06, 101640.78, 0.11,-0.54, 9.64, 10173
25.06, 101640.78, 0.19,-0.57, 9.64, 10178
25.06, 101640.78, 0.19,-0.61, 9.62, 10183
25.06, 101640.78, 0.17,-0.61, 9.64, 10188
25.06, 101639.41, 0.21,-0.54, 9.60, 10193
25.06, 101639.41, 0.15,-0.59, 9.64, 10198
25.06, 101639.41, 0.17,-0.59, 9.67, 10203
25.06, 101639.41, 0.13,-0.57, 9.64, 10208
25.06, 101639.41, 0.19,-0.59, 9.75, 10213
25.06, 101639.41, 0.25,-0.46, 9.71, 10218
25.06, 101639.41, 0.29,-0.63, 9.75, 10223
25.06, 101642.44, 0.27,-0.59, 9.62, 10228
25.06, 101642.44, 0.19,-0.56, 9.73, 10233
25.06, 101642.44, 0.34,-0.59, 9.71, 10238
25.06, 101642.44, 0.31,-0.67, 9.62, 10243
25.06, 101642.44, 0.21,-0.52, 9.62, 10248
25.06, 101642.44, 0.17,-0.63, 9.69, 10253
25.06, 101642.44, 0.29,-0.57, 9.64, 10258
25.06, 101640.45, 0.25,-0.63, 9.66, 10263
25.06, 101640.45, 0.27,-0.65, 9.62, 10268
25.06, 101640.45, 0.27,-0.57, 9.64, 10273
25.06, 101640.45, 0.25,-0.61, 9.62, 10278
25.06, 101640.45, 0.31,-0.57, 9.60, 10283
25.06, 101640.45, 0.25,-0.63, 9.64, 10288
25.06, 101640.45, 0.25,-0.63, 9.69, 10293
25.06, 101640.62, 0.23,-0.63, 9.66, 10298
25.06, 101640.62, 0.29,-0.61, 9.66, 10303
25.06, 101640.62, 0.23,-0.57, 9.56, 10308
25.06, 101640.62, 0.29,-0.59, 9.66, 10313
25.06, 101640.62, 0.19,-0.56, 9.62, 10318
25.06, 101640.62, 0.27,-0.56, 9.69, 10323
25.06, 101640.62, 0.25,-0.54, 9.52, 10328
25.06, 101642.72, 0.25,-0.63, 9.62, 10333
25.06, 101642.72, 0.27,-0.54, 9.62, 10338
25.06, 101642.72, 0.25,-0.59, 9.73, 10343
25.06, 101642.72, 0.15,-0.61, 9.50, 10348
25.06, 101642.72, 0.27,-0.57, 9.58, 10353
25.06, 101642.72, 0.21,-0.59, 9.64, 10358
25.06, 101642.72, 0.25,-0.56, 9.67, 10363
25.06, 101640.66, 0.23,-0.56, 9.62, 10371
25.06, 101640.66, 0.25,-0.65, 9.58, 10375
25.06, 101640.66, 0.21,-0.61, 9.62, 10380
25.06, 101640.66, 0.27,-0.59, 9.64, 10385
25.06, 101640.66, 0.25,-0.54, 9.60, 10390
25.06, 101640.66, 0.25,-0.54, 9.60, 10395
25.06, 101640.66, 0.27,-0.48, 9.66, 10400
25.06, 101637.76, 0.25,-0.54, 9.69, 10405
25.06, 101637.76, 0.13,-0.57, 9.64, 10410
25.06, 101637.76, 0.23,-0.59, 9.71, 10415
25.06, 101637.76, 0.27,-0.57, 9.66, 10420
25.06, 101637.76, 0.23,-0.63, 9.56, 10425
25.06, 101637.76, 0.27,-0.61, 9.77, 10430
25.06, 101637.76, 0.31,-0.57, 9.67, 10435
25.06, 101639.62, 0.33,-0.57, 9.75, 10440
25.06, 101639.62, 0.31,-0.56, 9.62, 10445
25.06, 101639.62, 0.33,-0.57, 9.66, 10450
25.06, 101639.62, 0.27,-0.61, 9.62, 10455
25.06, 101639.62, 0.25,-0.63, 9.62, 10460
25.06, 101639.62, 0.27,-0.56, 9.66, 10465
25.06, 101639.62, 0.23,-0.50, 9.66, 10470
25.06, 101640.78, 0.31,-0.50, 9.66, 10475
25.06, 101640.78, 0.25,-0.59, 9.64, 10480
25.06, 101640.78, 0.33,-0.57, 9.69, 10485
25.06, 101640.78, 0.21,-0.52, 9.62, 10490
25.06, 101640.78, 0.23,-0.59, 9.73, 10495
25.06, 101640.78, 0.25,-0.61, 9.66, 10500
25.06, 101640.78, 0.21,-0.57, 9.62, 10505
25.06, 101641.72, 0.21,-0.54, 9.62, 10510
25.06, 101641.72, 0.23,-0.57, 9.67, 10515
25.06, 101641.72, 0.23,-0.61, 9.67, 10520
25.06, 101641.72, 0.19,-0.59, 9.50, 10525
25.06, 101641.72, 0.27,-0.57, 9.54, 10530
25.06, 101641.72, 0.27,-0.67, 9.77, 10535
25.06, 101641.72, 0.27,-0.65, 9.79, 10540
25.06, 101641.72, 0.19,-0.57, 9.81, 10545
25.06, 101640.89, 0.15,-0.61, 9.58, 10550
25.06, 101640.89, 0.17,-0.56, 9.45, 10555
25.06, 101640.89, 0.21,-0.59, 9.56, 10560
25.06, 101640.89, 0.29,-0.52, 9.58, 10565
25.06, 101640.89, 0.23,-0.54, 9.62, 10570
25.06, 101640.89, 0.25,-0.59, 9.67, 10575
25.06, 101640.89, 0.25,-0.57, 9.66, 10580
25.06, 101638.47, 0.25,-0.54, 9.62, 10585
25.06, 101638.47, 0.25,-0.61, 9.71, 10590
25.06, 101638.47, 0.25,-0.56, 9.58, 10595
25.06, 101638.47, 0.23,-0.56, 9.62, 10600
25.06, 101638.47, 0.29,-0.59, 9.56, 10605
25.06, 101638.47, 0.23,-0.65, 9.62, 10610
25.06, 101638.47, 0.27,-0.59, 9.67, 10615
25.06, 101642.00, 0.29,-0.59, 9.62, 10620
25.06, 101642.00, 0.25,-0.59, 9.60, 10625
25.06, 101642.00, 0.21,-0.59, 9.62, 10630
25.06, 101642.00, 0.19,-0.59, 9.62, 10635
25.06, 101642.00, 0.25,-0.57, 9.56, 10640
25.06, 101642.00, 0.19,-0.63, 9.69, 10645
25.06, 101642.00, 0.25,-0.61, 9.75, 10650
25.06, 101641.67, 0.19,-0.57, 9.64, 10655
25.06, 101641.67, 0.19,-0.77, 9.75, 10660
25.06, 101641.67, 0.15,-0.33, 9.58, 10665
25.06, 101641.67, 0.25,-0.57, 9.77, 10670
25.06, 101641.67, 0.25,-0.59, 9.52, 10675
25.06, 101641.67, 0.25,-0.61, 9.62, 10680
25.06, 101641.67, 0.23,-0.56, 9.56, 10685
25.06, 101639.80, 0.21,-0.56, 9.48, 10690
25.06, 101639.80, 0.27,-0.56, 9.62, 10695
25.06, 101639.80, 0.25,-0.56, 9.62, 10700
25.06, 101639.80, 0.25,-0.56, 9.64, 10705
25.06, 101639.80, 0.21,-0.56, 9.64, 10710
25.06, 101639.80, 0.19,-0.61, 9.71, 10715
25.06, 101639.80, 0.19,-0.57, 9.64, 10720
25.06, 101642.33, 0.19,-0.57, 9.67, 10725
25.06, 101642.33, 0.27,-0.56, 9.62, 10730
25.06, 101642.33, 0.27,-0.61, 9.66, 10735
25.06, 101642.33, 0.25,-0.54, 9.66, 10740
25.06, 101642.33, 0.27,-0.56, 9.62, 10745
25.06, 101642.33, 0.27,-0.54, 9.60, 10750
25.06, 101642.33, 0.34,-0.52, 9.66, 10755
25.06, 101642.49, 0.34,-0.63, 9.71, 10760
25.06, 101642.49, 0.21,-0.59, 9.50, 10765
25.06, 101642.49, 0.17,-0.50, 9.60, 10770
25.06, 101642.49, 0.21,-0.44, 9.66, 10775
25.06, 101642.49, 0.25,-0.73, 9.62, 10780
25.06, 101642.49, 0.25,-0.71, 9.58, 10785
25.06, 101642.49, 0.25,-0.61, 9.58, 10790
25.06, 101642.10, 0.17,-0.61, 9.60, 10795
25.06, 101642.10, 0.29,-0.65, 9.58, 10800
25.06, 101642.10, 0.25,-0.59, 9.67, 10805
25.06, 101642.10, 0.23,-0.59, 9.52, 10810
25.06, 101642.10, 0.25,-0.57, 9.64, 10815
25.06, 101642.10, 0.23,-0.65, 9.60, 10820
25.06, 101642.10, 0.23,-0.59, 9.60, 10825
25.06, 101639.31, 0.25,-0.61, 9.62, 10830
25.06, 101639.31, 0.25,-0.57, 9.73, 10835
25.06, 101639.31, 0.19,-0.63, 9.64, 10840
25.06, 101639.31, 0.15,-0.57, 9.66, 10845
25.06, 101639.31, 0.19,-0.57, 9.60, 10850
25.06, 101639.31, 0.27,-0.57, 9.62, 10855
25.06, 101639.31, 0.23,-0.57, 9.60, 10860
25.06, 101641.67, 0.21,-0.57, 9.58, 10865
25.06, 101641.67, 0.27,-0.63, 9.69, 10873
25.06, 101641.67, 0.29,-0.63, 9.69, 10877
25.06, 101641.67, 0.17,-0.59, 9.81, 10882
25.06, 101641.67, 0.21,-0.57, 9.69, 10887
25.06, 101641.67, 0.31,-0.59, 9.66, 10892
25.06, 101641.67, 0.33,-0.61, 9.52, 10897
25.06, 101644.20, 0.25,-0.50, 9.64, 10902
25.06, 101644.20, 0.25,-0.54, 9.66, 10907
25.06, 101644.20, 0.29,-0.59, 9.66, 10912
25.06, 101644.20, 0.25,-0.57, 9.66, 10917
25.06, 101644.20, 0.23,-0.56, 9.66, 10922
25.06, 101644.20, 0.21,-0.57, 9.56, 10927
25.06, 101644.20, 0.21,-0.57, 9.71, 10932
25.06, 101640.23, 0.25,-0.52, 9.71, 10937
25.06, 101640.23, 0.23,-0.54, 9.66, 10942
25.06, 101640.23, 0.21,-0.52, 9.62, 10947
25.06, 101640.23, 0.19,-0.50, 9.64, 10952
25.06, 101640.23, 0.23,-0.48, 9.60, 10957
25.06, 101640.23, 0.33,-0.48, 9.66, 10962
25.06, 101640.23, 0.27,-0.56, 9.66, 10967
25.06, 101638.97, 0.23,-0.65, 9.58, 10972
25.06, 101638.97, 0.23,-0.56, 9.66, 10977
25.06, 101638.97, 0.21,-0.56, 9.56, 10982
25.06, 101638.97, 0.23,-0.59, 9.60, 10987
25.06, 101638.97, 0.21,-0.57, 9.56, 10992
25.06, 101638.97, 0.19,-0.59, 9.67, 10997
25.06, 101638.97, 0.23,-0.56, 9.60, 11002
25.06, 101641.23, 0.23,-0.59, 9.67, 11007
25.06, 101641.23, 0.23,-0.50, 9.54, 11012
25.06, 101641.23, 0.21,-0.54, 9.60, 11017
25.06, 101641.23, 0.25,-0.59, 9.56, 11022
25.06, 101641.23, 0.23,-0.56, 9.62, 11027
25.06, 101641.23, 0.29,-0.54, 9.64, 11032
25.06, 101641.23, 0.34,-0.48, 9.60, 11037
25.06, 101641.23, 0.25,-0.46, 9.60, 11042
25.06, 101638.36, 0.29,-0.61, 9.64, 11047
25.06, 101638.36, 0.29,-0.59, 9.69, 11052
25.06, 101638.36, 0.33,-0.52, 9.67, 11057
25.06, 101638.36, 0.29,-0.59, 9.69, 11062
25.06, 101638.36, 0.27,-0.57, 9.62, 11067
25.06, 101638.36, 0.27,-0.59, 9.62, 11072
25.06, 101638.36, 0.23,-0.52, 9.66, 11077
25.06, 101640.78, 0.23,-0.54, 9.56, 11082
25.06, 101640.78, 0.21,-0.61, 9.56, 11087
25.06, 101640.78, 0.25,-0.56, 9.69, 11092
25.06, 101640.78, 0.13,-0.59, 9.50, 11097
25.06, 101640.78, 0.19,-0.56, 9.60, 11102
25.06, 101640.78, 0.21,-0.56, 9.73, 11107
25.06, 101640.78, 0.13,-0.57, 9.69, 11112
25.06, 101638.91, 0.25,-0.54, 9.56, 11117
25.06, 101638.91, 0.23,-0.56, 9.56, 11122
25.06, 101638.91, 0.23,-0.52, 9.64, 11127
25.06, 101638.91, 0.21,-0.61, 9.71, 11132
25.06, 101638.91, 0.23,-0.50, 9.75, 11137
25.06, 101638.91, 0.29,-0.48, 9.75, 11142
25.06, 101638.91, 0.25,-0.57, 9.64, 11147
25.06, 101639.52, 0.19,-0.61, 9.64, 11152
25.06, 101639.52, 0.19,-0.56, 9.66, 11157
25.06, 101639.52, 0.25,-0.52, 9.62, 11162
25.06, 101639.52, 0.19,-0.59, 9.58, 11167
25.06, 101639.52, 0.21,-0.59, 9.62, 11172
25.06, 101639.52, 0.19,-0.56, 9.75, 11177
25.06, 101639.52, 0.23,-0.57, 9.69, 11182
25.06, 101638.97, 0.23,-0.61, 9.58, 11187
25.06, 101638.97, 0.25,-0.63, 9.66, 11192
25.06, 101638.97, 0.21,-0.57, 9.67, 11197
25.06, 101638.97, 0.19,-0.57, 9.71, 11202
25.06, 101638.97, 0.17,-0.61, 9.64, 11207
25.06, 101638.97, 0.21,-0.59, 9.52, 11212
25.06, 101638.97, 0.21,-0.57, 9.64, 11217
25.06, 101639.14, 0.27,-0.57, 9.58, 11222
25.06, 101639.14, 0.23,-0.61, 9.73, 11227
25.06, 101639.14, 0.13,-0.61, 9.64, 11232
25.06, 101639.14, 0.21,-0.57, 9.64, 11237
25.06, 101639.14, 0.27,-0.57, 9.52, 11242
25.06, 101639.14, 0.29,-0.61, 9.58, 11247
25.06, 101639.14, 0.19,-0.57, 9.62, 11252
25.06, 101637.92, 0.27,-0.56, 9.64, 11257
25.06, 101637.92, 0.21,-0.56, 9.69, 11262
25.06, 101637.92, 0.29,-0.52, 9.66, 11267
25.06, 101637.92, 0.29,-0.48, 9.62, 11272
25.06, 101637.92, 0.29,-0.54, 9.67, 11277
25.06, 101637.92, 0.25,-0.54, 9.64, 11282
25.06, 101637.92, 0.27,-0.54, 9.64, 11287
25.06, 101639.58, 0.29,-0.59, 9.62, 11292
25.06, 101639.58, 0.25,-0.57, 9.67, 11297
25.06, 101639.58, 0.29,-0.57, 9.60, 11302
25.06, 101639.58, 0.25,-0.56, 9.67, 11307
25.06, 101639.58, 0.29,-0.52, 9.64, 11312
25.06, 101639.58, 0.25,-0.56, 9.60, 11317
25.06, 101639.58, 0.21,-0.57, 9.64, 11322
25.06, 101641.50, 0.23,-0.65, 9.66, 11327
25.06, 101641.50, 0.21,-0.59, 9.67, 11332
25.06, 101641.50, 0.27,-0.57, 9.66, 11337
25.06, 101641.50, 0.29,-0.59, 9.56, 11342
25.06, 101641.50, 0.25,-0.57, 9.67, 11347
25.06, 101641.50, 0.21,-0.56, 9.58, 11352
25.06, 101641.50, 0.23,-0.57, 9.54, 11357
25.06, 101638.25, 0.17,-0.61, 9.56, 11362
25.06, 101638.25, 0.21,-0.56, 9.58, 11367
25.06, 101638.25, 0.21,-0.61, 9.60, 11375
25.06, 101638.25, 0.23,-0.65, 9.64, 11380
25.06, 101638.25, 0.27,-0.69, 9.60, 11384
25.06, 101638.25, 0.17,-0.59, 9.66, 11389
25.06, 101638.25, 0.27,-0.56, 9.67, 11394
25.06, 101641.72, 0.27,-0.54, 9.64, 11399
25.06, 101641.72, 0.25,-0.63, 9.56, 11404
25.06, 101641.72, 0.27,-0.57, 9.66, 11409
25.06, 101641.72, 0.25,-0.57, 9.54, 11414
25.06, 101641.72, 0.27,-0.57, 9.54, 11419
25.06, 101641.72, 0.25,-0.52, 9.54, 11424
25.06, 101641.72, 0.33,-0.61, 9.79, 11429
25.06, 101640.57, 0.31,-0.59, 9.62, 11434
25.06, 101640.57, 0.25,-0.59, 9.60, 11439
25.06, 101640.57, 0.25,-0.52, 9.75, 11444
25.06, 101640.57, 0.23,-0.50, 9.67, 11449
25.06, 101640.57, 0.23,-0.50, 9.64, 11454
25.06, 101640.57, 0.21,-0.56, 9.56, 11459
25.06, 101640.57, 0.21,-0.59, 9.56, 11464
25.06, 101639.73, 0.23,-0.57, 9.60, 11469
25.06, 101639.73, 0.21,-0.56, 9.56, 11474
25.06, 101639.73, 0.17,-0.56, 9.69, 11479
25.06, 101639.73, 0.29,-0.54, 9.62, 11484
25.06, 101639.73, 0.23,-0.61, 9.64, 11489
25.06, 101639.73, 0.25,-0.65, 9.58, 11494
25.06, 101639.73, 0.27,-0.61, 9.64, 11499
25.06, 101640.57, 0.25,-0.57, 9.60, 11504
25.06, 101640.57, 0.23,-0.61, 9.62, 11509
25.06, 101640.57, 0.27,-0.63, 9.62, 11514
25.06, 101640.57, 0.23,-0.57, 9.67, 11519
25.06, 101640.57, 0.17,-0.63, 9.64, 11524
25.06, 101640.57, 0.13,-0.57, 9.69, 11529
25.06, 101640.57, 0.17,-0.59, 9.73, 11534
25.06, 101642.72, 0.13,-0.52, 9.64, 11539
25.06, 101640.95, 0.15,-0.52, 9.75, 11544
25.06, 101640.95, 0.17,-0.57, 9.58, 11549
25.06, 101640.95, 0.27,-0.56, 9.58, 11554
25.06, 101640.95, 0.23,-0.57, 9.67, 11559
25.06, 101640.95, 0.27,-0.56, 9.67, 11564
25.06, 101640.95, 0.21,-0.57, 9.73, 11569
25.06, 101640.95, 0.23,-0.63, 9.67, 11574
25.06, 101641.39, 0.17,-0.54, 9.69, 11579
25.06, 101641.39, 0.19,-0.61, 9.60, 11584
25.06, 101641.39, 0.21,-0.59, 9.66, 11589
25.06, 101641.39, 0.25,-0.61, 9.66, 11594
25.06, 101641.39, 0.25,-0.59, 9.56, 11599
25.06, 101641.39, 0.23,-0.52, 9.69, 11604
25.06, 101641.39, 0.23,-0.50, 9.66, 11609
25.06, 101641.89, 0.21,-0.56, 9.67, 11614
25.06, 101641.89, 0.23,-0.54, 9.62, 11619
25.06, 101641.89, 0.21,-0.54, 9.64, 11624
25.06, 101641.89, 0.19,-0.59, 9.64, 11629
25.06, 101641.89, 0.23,-0.61, 9.60, 11634
25.06, 101641.89, 0.23,-0.59, 9.60, 11639
25.06, 101641.89, 0.29,-0.61, 9.64, 11644
25.06, 101643.15, 0.25,-0.61, 9.66, 11649
25.06, 101643.15, 0.23,-0.59, 9.66, 11654
25.06, 101643.15, 0.29,-0.63, 9.60, 11659
25.06, 101643.15, 0.25,-0.52, 9.75, 11664
25.06, 101643.15, 0.23,-0.46, 9.64, 11669
25.06, 101643.15, 0.23,-0.50, 9.75, 11674
25.06, 101643.15, 0.21,-0.54, 9.81, 11679
25.06, 101640.02, 0.17,-0.67, 9.71, 11684
25.06, 101640.02, 0.17,-0.67, 9.66, 11689
25.06, 101640.02, 0.23,-0.61, 9.62, 11694
25.06, 101640.02, 0.23,-0.56, 9.60, 11699
25.06, 101640.02, 0.21,-0.59, 9.50, 11704
25.06, 101640.02, 0.27,-0.61, 9.52, 11709
25.06, 101640.02, 0.23,-0.63, 9.58, 11714
25.06, 101641.17, 0.29,-0.57, 9.62, 11719
25.06, 101641.17, 0.23,-0.57, 9.64, 11724
25.06, 101641.17, 0.17,-0.59, 9.66, 11729
25.06, 101641.17, 0.17,-0.59, 9.66, 11734
25.06, 101641.17, 0.17,-0.54, 9.60, 11739
25.06, 101641.17, 0.27,-0.57, 9.64, 11744
25.06, 101641.17, 0.19,-0.56, 9.62, 11749
25.06, 101642.38, 0.17,-0.54, 9.64, 11754
25.06, 101642.38, 0.21,-0.57, 9.67, 11759
25.06, 101642.38, 0.29,-0.57, 9.60, 11764
25.06, 101642.38, 0.33,-0.57, 9.69, 11769
25.06, 101642.38, 0.23,-0.50, 9.69, 11774
25.06, 101642.38, 0.15,-0.56, 9.56, 11779
25.06, 101642.38, 0.29,-0.52, 9.85, 11784
25.06, 101640.91, 0.19,-0.50, 9.69, 11789
25.06, 101640.91, 0.21,-0.61, 9.60, 11794
25.06, 101640.91, 0.17,-0.54, 9.64, 11799
25.06, 101640.91, 0.27,-0.59, 9.64, 11804
25.06, 101640.91, 0.21,-0.54, 9.69, 11809
25.06, 101640.91, 0.31,-0.56, 9.58, 11814
25.06, 101640.91, 0.33,-0.54, 9.64, 11819
25.06, 101639.52, 0.17,-0.65, 9.60, 11824
25.06, 101639.52, 0.17,-0.61, 9.64, 11829
25.06, 101639.52, 0.21,-0.57, 9.62, 11834
25.06, 101639.52, 0.21,-0.57, 9.60, 11839
25.06, 101639.52, 0.15,-0.57, 9.62, 11844
25.06, 101639.52, 0.25,-0.61, 9.60, 11849
25.06, 101639.52, 0.25,-0.54, 9.62, 11854
25.06, 101640.73, 0.23,-0.52, 9.62, 11859
25.06, 101640.73, 0.19,-0.54, 9.62, 11864
25.06, 101640.73, 0.19,-0.59, 9.60, 11869
25.06, 101640.73, 0.21,-0.52, 9.60, 11877
25.06, 101640.73, 0.17,-0.56, 9.66, 11881
25.06, 101640.73, 0.25,-0.63, 9.67, 11886
25.06, 101640.73, 0.29,-0.65, 9.67, 11891
25.06, 101640.57, 0.34,-0.59, 9.66, 11896
25.06, 101640.57, 0.25,-0.56, 9.66, 11901
25.06, 101640.57, 0.17,-0.56, 9.60, 11906
25.06, 101640.57, 0.27,-0.50, 9.69, 11911
25.06, 101640.57, 0.19,-0.57, 9.60, 11916
25.06, 101640.57, 0.19,-0.59, 9.62, 11921
25.06, 101640.57, 0.21,-0.67, 9.66, 11926
25.06, 101642.05, 0.29,-0.61, 9.66, 11931
25.06, 101642.05, 0.31,-0.61, 9.67, 11936
25.06, 101642.05, 0.21,-0.56, 9.62, 11941
25.06, 101642.05, 0.29,-0.54, 9.62, 11946
25.06, 101642.05, 0.31,-0.61, 9.64, 11951
25.06, 101642.05, 0.25,-0.52, 9.66, 11956
25.06, 101642.05, 0.27,-0.54, 9.60, 11961
25.06, 101640.84, 0.27,-0.52, 9.66, 11966
25.06, 101640.84, 0.21,-0.56, 9.67, 11971
25.06, 101640.84, 0.29,-0.56, 9.71, 11976
25.06, 101640.84, 0.17,-0.52, 9.54, 11981
25.06, 101640.84, 0.17,-0.65, 9.52, 11986
25.06, 101640.84, 0.21,-0.59, 9.71, 11991
25.06, 101640.84, 0.23,-0.56, 9.69, 11996
25.06, 101640.62, 0.29,-0.56, 9.62, 12001
25.06, 101640.62, 0.27,-0.61, 9.62, 12006
25.06, 101640.62, 0.33,-0.61, 9.62, 12011
25.06, 101640.62, 0.21,-0.54, 9.56, 12016
25.06, 101640.62, 0.21,-0.65, 9.67, 12021
25.06, 101640.62, 0.21,-0.57, 9.64, 12026
25.06, 101640.62, 0.21,-0.61, 9.62, 12031
25.06, 101640.78, 0.23,-0.61, 9.69, 12036
25.06, 101640.78, 0.19,-0.61, 9.64, 12041
25.06, 101640.78, 0.21,-0.57, 9.58, 12046
25.06, 101640.78, 0.21,-0.59, 9.58, 12051
25.06, 101640.78, 0.17,-0.65, 9.66, 12056
25.06, 101640.78, 0.21,-0.56, 9.62, 12061
25.06, 101640.78, 0.23,-0.54, 9.64, 12066
25.06, 101640.78, 0.23,-0.61, 9.66, 12071
25.06, 101640.95, 0.21,-0.63, 9.60, 12076
25.06, 101640.95, 0.25,-0.57, 9.52, 12081
25.06, 101640.95, 0.23,-0.57, 9.60, 12086
25.06, 101640.95, 0.34,-0.52, 9.69, 12091
25.06, 101640.95, 0.33,-0.46, 9.56, 12096
25.06, 101640.95, 0.27,-0.67, 9.66, 12101
25.06, 101640.95, 0.21,-0.59, 9.54, 12106
25.06, 101640.45, 0.23,-0.57, 9.58, 12111
25.06, 101640.45, 0.23,-0.63, 9.83, 12116
25.06, 101640.45, 0.19,-0.59, 9.66, 12121
25.06, 101640.45, 0.25,-0.56, 9.66, 12126
25.06, 101640.45, 0.19,-0.52, 9.62, 12131
25.06, 101640.45, 0.25,-0.65, 9.73, 12136
25.06, 101640.45, 0.25,-0.61, 9.58, 12141
25.06, 101640.91, 0.23,-0.54, 9.58, 12146
25.06, 101640.91, 0.25,-0.56, 9.62, 12151
25.06, 101640.91, 0.23,-0.57, 9.66, 12156
25.06, 101640.91, 0.21,-0.56, 9.62, 12161
25.06, 101640.91, 0.21,-0.54, 9.67, 12166
25.06, 101640.91, 0.23,-0.59, 9.75, 12171
25.06, 101640.91, 0.15,-0.63, 9.64, 12176
25.06, 101640.12, 0.13,-0.63, 9.56, 12181
25.06, 101640.12, 0.19,-0.59, 9.66, 12186
25.06, 101640.12, 0.25,-0.59, 9.56, 12191
25.06, 101640.12, 0.23,-0.56, 9.71, 12196
25.06, 101640.12, 0.29,-0.59, 9.62, 12201
25.06, 101640.12, 0.23,-0.63, 9.62, 12206
25.06, 101640.12, 0.33,-0.52, 9.56, 12211
25.06, 101641.61, 0.27,-0.54, 9.67, 12216
25.06, 101641.61, 0.31,-0.50, 9.54, 12221
25.06, 101641.61, 0.27,-0.50, 9.58, 12226
25.06, 101641.61, 0.21,-0.59, 9.62, 12231
25.06, 101641.61, 0.21,-0.54, 9.62, 12236
25.06, 101641.61, 0.21,-0.63, 9.64, 12241
25.06, 101641.61, 0.21,-0.56, 9.69, 12246
25.06, 101641.00, 0.21,-0.63, 9.69, 12251
25.06, 101641.00, 0.23,-0.59, 9.64, 12256
25.06, 101641.00, 0.19,-0.57, 9.66, 12261
25.06, 101641.00, 0.25,-0.57, 9.69, 12266
25.06, 101641.00, 0.19,-0.57, 9.64, 12271
25.06, 101641.00, 0.21,-0.65, 9.64, 12276
25.06, 101641.00, 0.27,-0.63, 9.67, 12281
25.06, 101639.41, 0.29,-0.54, 9.64, 12286
25.06, 101639.41, 0.25,-0.54, 9.69, 12291
25.06, 101639.41, 0.23,-0.59, 9.60, 12296
25.06, 101639.41, 0.17,-0.56, 9.62, 12301
25.06, 101639.41, 0.23,-0.54, 9.69, 12306
25.06, 101639.41, 0.27,-0.52, 9.67, 12311
25.06, 101639.41, 0.23,-0.56, 9.71, 12316
25.06, 101639.80, 0.23,-0.54, 9.66, 12321
25.06, 101639.80, 0.25,-0.61, 9.79, 12326
25.06, 101639.80, 0.17,-0.54, 9.39, 12331
25.06, 101639.80, 0.21,-0.56, 9.67, 12336
25.06, 101639.80, 0.19,-0.59, 9.71, 12341
25.06, 101639.80, 0.19,-0.61, 9.73, 12346
25.06, 101639.80, 0.21,-0.65, 9.67, 12351
25.06, 101640.18, 0.23,-0.56, 9.67, 12356
25.06, 101640.18, 0.15,-0.56, 9.67, 12361
25.06, 101640.18, 0.23,-0.57, 9.62, 12366
25.06, 101640.18, 0.11,-0.59, 9.64, 12371
25.06, 101640.18, 0.21,-0.54, 9.60, 12379
25.06, 101640.18, 0.29,-0.56, 9.60, 12383
25.06, 101640.18, 0.23,-0.57, 9.60, 12388
25.06, 101641.23, 0.31,-0.57, 9.54, 12393
25.06, 101641.23, 0.25,-0.65, 9.58, 12398
25.06, 101641.23, 0.25,-0.56, 9.60, 12403
25.06, 101641.23, 0.27,-0.56, 9.64, 12408
25.06, 101641.23, 0.25,-0.50, 9.64, 12413
25.06, 101641.23, 0.17,-0.61, 9.64, 12418
25.06, 101641.23, 0.31,-0.57, 9.67, 12423
25.06, 101636.93, 0.25,-0.57, 9.77, 12428
25.06, 101636.93, 0.25,-0.65, 9.62, 12433
25.06, 101636.93, 0.27,-0.52, 9.69, 12438
25.06, 101636.93, 0.31,-0.56, 9.60, 12443
25.06, 101636.93, 0.17,-0.52, 9.66, 12448
25.06, 101636.93, 0.31,-0.57, 9.60, 12453
25.06, 101636.93, 0.23,-0.54, 9.62, 12458
25.06, 101639.41, 0.23,-0.52, 9.62, 12463
25.06, 101639.41, 0.21,-0.59, 9.67, 12468
25.06, 101639.41, 0.19,-0.50, 9.62, 12473
25.06, 101639.41, 0.17,-0.57, 9.62, 12478
25.06, 101639.41, 0.23,-0.57, 9.64, 12483
25.06, 101639.41, 0.21,-0.54, 9.64, 12488
25.06, 101639.41, 0.23,-0.63, 9.64, 12493
25.06, 101640.45, 0.13,-0.63, 9.66, 12498
25.06, 101640.45, 0.17,-0.56, 9.62, 12503
25.06, 101640.45, 0.23,-0.54, 9.62, 12508
25.06, 101640.45, 0.25,-0.56, 9.60, 12513
25.06, 101640.45, 0.17,-0.59, 9.66, 12518
25.06, 101640.45, 0.23,-0.50, 9.66, 12523
25.06, 101640.45, 0.23,-0.50, 9.54, 12528
25.06, 101640.12, 0.27,-0.52, 9.66, 12533
25.06, 101640.12, 0.19,-0.50, 9.71, 12538
25.06, 101640.12, 0.25,-0.56, 9.54, 12543
25.06, 101640.12, 0.21,-0.57, 9.69, 12548
25.06, 101640.12, 0.25,-0.56, 9.69, 12553
25.06, 101640.12, 0.27,-0.52, 9.60, 12558
25.06, 101640.12, 0.21,-0.56, 9.62, 12563
25.06, 101640.12, 0.19,-0.61, 9.62, 12568
25.06, 101640.02, 0.25,-0.54, 9.52, 12573
25.06, 101640.02, 0.31,-0.61, 9.67, 12578
25.06, 101640.02, 0.29,-0.59, 9.62, 12583
25.06, 101640.02, 0.27,-0.61, 9.62, 12588
25.06, 101640.02, 0.25,-0.61, 9.71, 12593
25.06, 101640.02, 0.29,-0.61, 9.64, 12598
25.06, 101640.02, 0.27,-0.61, 9.62, 12603
25.06, 101640.84, 0.21,-0.57, 9.54, 12608
25.06, 101640.84, 0.29,-0.61, 9.64, 12613
25.06, 101640.84, 0.23,-0.59, 9.58, 12618
25.06, 101640.84, 0.29,-0.57, 9.60, 12623
25.06, 101640.84, 0.27,-0.56, 9.62, 12628
25.06, 101640.84, 0.21,-0.52, 9.64, 12633
25.06, 101640.84, 0.19,-0.59, 9.67, 12638
25.06, 101640.12, 0.23,-0.59, 9.60, 12643
25.06, 101640.12, 0.23,-0.59, 9.66, 12648
25.06, 101640.12, 0.23,-0.59, 9.60, 12653
25.06, 101640.12, 0.17,-0.73, 9.69, 12658
25.06, 101640.12, 0.19,-0.63, 9.67, 12663
25.06, 101640.12, 0.19,-0.61, 9.62, 12668
25.06, 101640.12, 0.31,-0.50, 9.77, 12673
25.06, 101641.34, 0.19,-0.54, 9.64, 12678
25.06, 101641.34, 0.23,-0.59, 9.69, 12683
25.06, 101641.34, 0.19,-0.50, 9.58, 12688
25.06, 101641.34, 0.21,-0.63, 9.60, 12693
25.06, 101641.34, 0.17,-0.59, 9.64, 12698
25.06, 101641.34, 0.29,-0.56, 9.56, 12703
25.06, 101641.34, 0.27,-0.48, 9.66, 12708
25.06, 101638.80, 0.23,-0.48, 9.60, 12713
25.06, 101638.80, 0.25,-0.57, 9.67, 12718
25.06, 101638.80, 0.25,-0.59, 9.64, 12723
25.06, 101638.80, 0.25,-0.61, 9.64, 12728
25.06, 101638.80, 0.23,-0.56, 9.62, 12733
25.06, 101638.80, 0.25,-0.54, 9.62, 12738
25.06, 101638.80, 0.19,-0.59, 9.62, 12743
25.06, 101637.09, 0.27,-0.63, 9.64, 12748
25.06, 101637.09, 0.25,-0.59, 9.62, 12753
25.06, 101637.09, 0.25,-0.54, 9.69, 12758
25.06, 101637.09, 0.25,-0.56, 9.66, 12763
25.06, 101637.09, 0.15,-0.57, 9.62, 12768
25.06, 101637.09, 0.23,-0.59, 9.69, 12773
25.06, 101637.09, 0.29,-0.56, 9.64, 12778
25.06, 101637.31, 0.19,-0.56, 9.60, 12783
25.06, 101637.31, 0.25,-0.52, 9.73, 12788
25.06, 101637.31, 0.21,-0.56, 9.73, 12793
25.06, 101637.31, 0.15,-0.57, 9.67, 12798
25.06, 101637.31, 0.13,-0.54, 9.60, 12803
25.06, 101637.31, 0.15,-0.57, 9.73, 12808
25.06, 101637.31, 0.17,-0.63, 9.60, 12813
25.06, 101638.20, 0.25,-0.56, 9.60, 12818
25.06, 101638.20, 0.31,-0.59, 9.62, 12823
25.06, 101638.20, 0.31,-0.56, 9.62, 12828
25.06, 101638.20, 0.25,-0.56, 9.58, 12833
25.06, 101638.20, 0.21,-0.57, 9.56, 12838
25.06, 101638.20, 0.23,-0.56, 9.60, 12843
25.06, 101638.20, 0.29,-0.57, 9.66, 12848
25.06, 101639.80, 0.19,-0.61, 9.66, 12853
25.06, 101639.80, 0.23,-0.54, 9.64, 12858
25.06, 101639.80, 0.25,-0.56, 9.66, 12863
25.06, 101639.80, 0.19,-0.56, 9.62, 12868
25.06, 101639.80, 0.23,-0.61, 9.60, 12873
25.06, 101639.80, 0.25,-0.57, 9.64, 12884
25.06, 101640.23, 0.21,-0.57, 9.64, 12889
25.06, 101640.23, 0.19,-0.56, 9.66, 12894
25.06, 101640.23, 0.21,-0.61, 9.64, 12899
25.06, 101640.23, 0.23,-0.61, 9.66, 12904
25.06, 101640.23, 0.27,-0.56, 9.66, 12909
25.06, 101640.23, 0.29,-0.59, 9.64, 12914
25.06, 101640.23, 0.21,-0.56, 9.66, 12919
25.06, 101641.77, 0.25,-0.56, 9.58, 12924
25.06, 101641.77, 0.19,-0.54, 9.60, 12929
25.06, 101641.77, 0.19,-0.59, 9.62, 12934
25.06, 101641.77, 0.25,-0.50, 9.64, 12939
25.06, 101641.77, 0.25,-0.56, 9.58, 12944
25.06, 101641.77, 0.21,-0.46, 9.64, 12949
25.06, 101641.77, 0.25,-0.50, 9.83, 12954
25.06, 101641.17, 0.21,-0.52, 9.66, 12959
25.06, 101641.17, 0.19,-0.52, 9.60, 12964
25.06, 101641.17, 0.13,-0.56, 9.62, 12969
25.06, 101641.17, 0.19,-0.57, 9.66, 12974
25.06, 101641.17, 0.17,-0.61, 9.62, 12979
25.06, 101641.17, 0.23,-0.54, 9.60, 12984
25.06, 101641.17, 0.15,-0.57, 9.64, 12989
25.06, 101641.00, 0.21,-0.59, 9.69, 12994
25.06, 101640.12, 0.29,-0.61, 9.69, 12999
25.06, 101640.12, 0.27,-0.59, 9.60, 13004
25.06, 101640.12, 0.29,-0.54, 9.66, 13009
25.06, 101640.12, 0.27,-0.59, 9.67, 13014
25.06, 101640.12, 0.27,-0.56, 9.66, 13019
25.06, 101640.12, 0.23,-0.56, 9.58, 13024
25.06, 101640.12, 0.25,-0.57, 9.58, 13029
25.06, 101641.28, 0.29,-0.59, 9.60, 13034
25.06, 101641.28, 0.21,-0.57, 9.62, 13039
25.06, 101641.28, 0.27,-0.61, 9.62, 13044
25.06, 101641.28, 0.29,-0.57, 9.60, 13049
25.06, 101641.28, 0.23,-0.61, 9.66, 13054
25.06, 101641.28, 0.23,-0.52, 9.62, 13059
25.06, 101641.28, 0.17,-0.61, 9.79, 13064
25.06, 101642.55, 0.25,-0.57, 9.64, 13069
25.06, 101642.55, 0.21,-0.59, 9.77, 13074
25.06, 101642.55, 0.17,-0.54, 9.81, 13079
25.06, 101642.55, 0.15,-0.54, 9.62, 13084
25.06, 101642.55, 0.19,-0.57, 9.66, 13089
25.06, 101642.55, 0.21,-0.59, 9.69, 13094
25.06, 101642.55, 0.21,-0.54, 9.62, 13099
25.06, 101640.29, 0.17,-0.52, 9.54, 13104
25.06, 101640.29, 0.23,-0.57, 9.64, 13109
25.06, 101640.29, 0.23,-0.54, 9.64, 13114
25.06, 101640.29, 0.21,-0.59, 9.71, 13119
25.06, 101640.29, 0.17,-0.52, 9.62, 13124
25.06, 101640.29, 0.21,-0.54, 9.67, 13129
25.06, 101640.29, 0.27,-0.57, 9.64, 13134
25.06, 101641.89, 0.33,-0.52, 9.62, 13139
25.06, 101641.89, 0.21,-0.50, 9.64, 13144
25.06, 101641.89, 0.23,-0.56, 9.66, 13149
25.06, 101641.89, 0.25,-0.57, 9.64, 13154
25.06, 101641.89, 0.27,-0.57, 9.66, 13159
25.06, 101641.89, 0.23,-0.54, 9.62, 13164
25.06, 101641.89, 0.23,-0.57, 9.62, 13169
25.06, 101640.02, 0.33,-0.52, 9.66, 13174
25.06, 101640.02, 0.23,-0.56, 9.67, 13179
25.06, 101640.02, 0.17,-0.56, 9.56, 13184
25.06, 101640.02, 0.17,-0.57, 9.60, 13189
25.06, 101640.02, 0.25,-0.57, 9.75, 13194
25.06, 101640.02, 0.17,-0.59, 9.64, 13199
25.06, 101640.02, 0.21,-0.63, 9.62, 13204
25.06, 101639.62, 0.25,-0.57, 9.62, 13209
25.06, 101639.62, 0.31,-0.59, 9.66, 13214
25.06, 101639.62, 0.21,-0.56, 9.62, 13219
25.06, 101639.62, 0.17,-0.57, 9.73, 13224
25.06, 101639.62, 0.27,-0.63, 9.67, 13229
25.06, 101639.62, 0.25,-0.59, 9.73, 13234
25.06, 101639.62, 0.23,-0.63, 9.66, 13239
25.06, 101639.46, 0.15,-0.61, 9.64, 13244
25.06, 101639.46, 0.23,-0.59, 9.67, 13249
25.06, 101639.46, 0.23,-0.65, 9.62, 13254
25.06, 101639.46, 0.21,-0.59, 9.64, 13259
25.06, 101639.46, 0.27,-0.57, 9.64, 13264
25.06, 101639.46, 0.25,-0.57, 9.64, 13269
25.06, 101639.46, 0.23,-0.56, 9.62, 13274
25.06, 101639.62, 0.21,-0.54, 9.66, 13279
25.06, 101639.62, 0.23,-0.59, 9.64, 13284
25.06, 101639.62, 0.25,-0.48, 9.66, 13289
25.06, 101639.62, 0.29,-0.54, 9.66, 13294
25.06, 101639.62, 0.29,-0.48, 9.67, 13299
25.06, 101639.62, 0.15,-0.50, 9.60, 13304
25.06, 101639.62, 0.19,-0.63, 9.71, 13309
25.06, 101640.18, 0.21,-0.50, 9.66, 13314
25.06, 101640.18, 0.23,-0.52, 9.71, 13319
25.06, 101640.18, 0.23,-0.56, 9.56, 13324
25.06, 101640.18, 0.27,-0.56, 9.64, 13329
25.06, 101640.18, 0.27,-0.54, 9.69, 13334
25.06, 101640.18, 0.19,-0.59, 9.66, 13339
25.06, 101640.18, 0.29,-0.56, 9.56, 13344
25.06, 101640.12, 0.23,-0.63, 9.67, 13349
25.06, 101640.12, 0.23,-0.52, 9.54, 13354
25.06, 101640.12, 0.23,-0.57, 9.69, 13359
25.06, 101640.12, 0.31,-0.57, 9.64, 13364
25.06, 101640.12, 0.23,-0.56, 9.62, 13369
25.06, 101640.12, 0.25,-0.54, 9.73, 13374
25.06, 101640.12, 0.17,-0.54, 9.64, 13379
25.06, 101642.38, 0.23,-0.54, 9.62, 13387
25.06, 101642.38, 0.23,-0.61, 9.66, 13391
25.06, 101642.38, 0.27,-0.56, 9.56, 13396
25.06, 101642.38, 0.31,-0.44, 9.77, 13401
25.06, 101642.38, 0.23,-0.54, 9.71, 13406
25.06, 101642.38, 0.23,-0.57, 9.67, 13411
25.06, 101642.38, 0.27,-0.52, 9.73, 13416
25.06, 101642.16, 0.29,-0.54, 9.66, 13421
25.06, 101642.16, 0.25,-0.54, 9.66, 13426
25.06, 101642.16, 0.25,-0.59, 9.62, 13431
25.06, 101642.16, 0.21,-0.61, 9.60, 13436
25.06, 101642.16, 0.29,-0.65, 9.66, 13441
25.06, 101642.16, 0.31,-0.63, 9.62, 13446
25.06, 101642.16, 0.23,-0.59, 9.58, 13451
25.06, 101643.55, 0.25,-0.52, 9.58, 13456
25.06, 101643.55, 0.27,-0.61, 9.60, 13461
25.06, 101643.55, 0.15,-0.65, 9.56, 13466
25.06, 101643.55, 0.21,-0.61, 9.62, 13471
25.06, 101643.55, 0.13,-0.59, 9.66, 13476
25.06, 101643.55, 0.13,-0.59, 9.62, 13481
25.06, 101643.55, 0.23,-0.56, 9.62, 13486
25.06, 101641.22, 0.21,-0.59, 9.66, 13491
25.06, 101641.22, 0.21,-0.61, 9.67, 13496
25.06, 101641.22, 0.27,-0.57, 9.66, 13501
25.06, 101641.22, 0.25,-0.56, 9.64, 13506
25.06, 101641.22, 0.23,-0.61, 9.67, 13511
25.06, 101641.22, 0.15,-0.65, 9.71, 13516
25.06, 101641.22, 0.19,-0.56, 9.67, 13521
25.06, 101641.22, 0.23,-0.50, 9.56, 13526
25.06, 101641.11, 0.23,-0.52, 9.46, 13531
25.06, 101641.11, 0.23,-0.63, 9.67, 13536
25.06, 101641.11, 0.23,-0.63, 9.62, 13541
25.06, 101641.11, 0.21,-0.54, 9.64, 13546
25.06, 101641.11, 0.23,-0.57, 9.66, 13551
25.06, 101641.11, 0.25,-0.57, 9.58, 13556
25.06, 101641.11, 0.23,-0.57, 9.66, 13561
25.06, 101641.94, 0.17,-0.52, 9.60, 13566
25.06, 101641.94, 0.23,-0.56, 9.60, 13571
25.06, 101641.94, 0.29,-0.54, 9.62, 13576
25.06, 101641.94, 0.23,-0.54, 9.66, 13581
25.06, 101641.94, 0.27,-0.56, 9.66, 13586
25.06, 101641.94, 0.19,-0.61, 9.66, 13591
25.06, 101641.94, 0.21,-0.61, 9.64, 13596
25.06, 101643.48, 0.23,-0.54, 9.62, 13601
25.06, 101643.48, 0.27,-0.56, 9.60, 13606
25.06, 101643.48, 0.17,-0.59, 9.66, 13611
25.06, 101643.48, 0.23,-0.61, 9.64, 13616
25.06, 101643.48, 0.23,-0.63, 9.62, 13621
25.06, 101643.48, 0.15,-0.61, 9.64, 13626
25.06, 101643.48, 0.21,-0.63, 9.62, 13631
25.06, 101641.00, 0.23,-0.56, 9.67, 13636
25.06, 101641.00, 0.17,-0.65, 9.64, 13641
25.06, 101641.00, 0.21,-0.61, 9.71, 13646
25.06, 101641.00, 0.19,-0.59, 9.62, 13651
25.06, 101641.00, 0.17,-0.61, 9.67, 13656
25.06, 101641.00, 0.23,-0.61, 9.60, 13661
25.06, 101641.00, 0.25,-0.61, 9.69, 13666
25.06, 101640.57, 0.23,-0.54, 9.67, 13671
25.06, 101640.57, 0.19,-0.56, 9.67, 13676
25.06, 101640.57, 0.17,-0.52, 9.58, 13681
25.06, 101640.57, 0.21,-0.61, 9.62, 13686
25.06, 101640.57, 0.19,-0.56, 9.64, 13691
25.06, 101640.57, 0.23,-0.61, 9.58, 13696
25.06, 101640.57, 0.21,-0.59, 9.66, 13701
25.06, 101641.77, 0.25,-0.57, 9.56, 13706
25.06, 101641.77, 0.29,-0.59, 9.62, 13711
25.06, 101641.77, 0.27,-0.57, 9.62, 13716
25.06, 101641.77, 0.25,-0.57, 9.64, 13721
25.06, 101641.77, 0.25,-0.59, 9.64, 13726
25.06, 101641.77, 0.29,-0.63, 9.69, 13731
25.06, 101641.77, 0.29,-0.56, 9.66, 13736
25.06, 101640.34, 0.25,-0.56, 9.64, 13741
25.06, 101640.34, 0.31,-0.54, 9.71, 13746
25.06, 101640.34, 0.23,-0.59, 9.58, 13751
25.06, 101640.34, 0.23,-0.57, 9.67, 13756
25.06, 101640.34, 0.21,-0.67, 9.58, 13761
25.06, 101640.34, 0.25,-0.67, 9.62, 13766
25.06, 101640.34, 0.17,-0.61, 9.77, 13771
25.06, 101641.61, 0.19,-0.33, 9.67, 13776
25.06, 101641.61, 0.21,-0.61, 9.58, 13781
25.06, 101641.61, 0.27,-0.59, 9.50, 13786
25.06, 101641.61, 0.27,-0.57, 9.52, 13791
25.06, 101641.61, 0.29,-0.63, 9.60, 13796
25.06, 101641.61, 0.21,-0.63, 9.62, 13801
25.06, 101641.61, 0.23,-0.57, 9.56, 13806
25.06, 101640.95, 0.27,-0.56, 9.58, 13811
25.06, 101640.95, 0.23,-0.57, 9.58, 13816
25.06, 101640.95, 0.29,-0.56, 9.56, 13821
25.06, 101640.95, 0.27,-0.48, 9.60, 13826
25.06, 101640.95, 0.27,-0.54, 9.62, 13831
25.06, 101640.95, 0.15,-0.57, 9.62, 13836
25.06, 101640.95, 0.21,-0.57, 9.60, 13841
25.06, 101642.55, 0.19,-0.63, 9.60, 13846
25.06, 101642.55, 0.19,-0.57, 9.58, 13851
25.06, 101642.55, 0.17,-0.61, 9.66, 13856
25.06, 101642.55, 0.27,-0.56, 9.56, 13861
25.06, 101642.55, 0.13,-0.57, 9.77, 13866
25.06, 101642.55, 0.23,-0.54, 9.79, 13871
25.06, 101642.55, 0.25,-0.56, 9.64, 13876
25.06, 101642.55, 0.29,-0.50, 9.39, 13881
25.06, 101643.70, 0.23,-0.69, 9.64, 13889
25.06, 101643.70, 0.23,-0.61, 9.69, 13894
25.06, 101643.70, 0.21,-0.67, 9.64, 13898
25.06, 101643.70, 0.19,-0.59, 9.71, 13903
25.06, 101643.70, 0.25,-0.52, 9.62, 13908
25.06, 101643.70, 0.21,-0.52, 9.64, 13913
25.06, 101643.26, 0.31,-0.57, 9.64, 13918
25.06, 101643.26, 0.21,-0.56, 9.62, 13923
25.06, 101643.26, 0.19,-0.57, 9.60, 13928
25.06, 101643.26, 0.23,-0.59, 9.66, 13933
25.06, 101643.26, 0.23,-0.56, 9.66, 13938
25.06, 101643.26, 0.27,-0.57, 9.56, 13943
25.06, 101643.26, 0.27,-0.57, 9.62, 13948
25.06, 101642.33, 0.21,-0.52, 9.64, 13953
25.06, 101642.33, 0.25,-0.48, 9.62, 13958
25.06, 101642.33, 0.27,-0.56, 9.64, 13963
25.06, 101642.33, 0.23,-0.54, 9.50, 13968
25.06, 101642.33, 0.27,-0.57, 9.54, 13973
25.06, 101642.33, 0.31,-0.57, 9.50, 13978
25.06, 101642.33, 0.25,-0.56, 9.46, 13983
25.06, 101641.39, 0.19,-0.54, 9.54, 13988
25.06, 101641.39, 0.25,-0.54, 9.58, 13993
25.06, 101641.39, 0.23,-0.57, 9.64, 13998
25.06, 101641.39, 0.23,-0.48, 9.60, 14003
25.06, 101641.39, 0.19,-0.56, 9.60, 14008
25.06, 101641.39, 0.13,-0.54, 9.58, 14013
25.06, 101641.39, 0.23,-0.61, 9.62, 14018
25.06, 101641.39, 0.29,-0.57, 9.66, 14023
25.06, 101641.72, 0.33,-0.59, 9.56, 14028
25.06, 101641.72, 0.27,-0.54, 9.62, 14033
25.06, 101641.72, 0.23,-0.59, 9.56, 14038
25.06, 101641.72, 0.27,-0.59, 9.56, 14043
25.06, 101641.72, 0.25,-0.54, 9.64, 14048
25.06, 101641.72, 0.21,-0.57, 9.67, 14053
25.06, 101641.72, 0.29,-0.57, 9.64, 14058
25.06, 101642.05, 0.23,-0.57, 9.64, 14063
25.06, 101642.05, 0.19,-0.59, 9.66, 14068
25.06, 101642.05, 0.15,-0.57, 9.58, 14073
25.06, 101642.05, 0.27,-0.52, 9.67, 14078
25.06, 101642.05, 0.19,-0.57, 9.64, 14083
25.06, 101642.05, 0.17,-0.59, 9.66, 14088
25.06, 101642.05, 0.17,-0.61, 9.60, 14093
25.06, 101643.15, 0.23,-0.65, 9.71, 14098
25.06, 101643.15, 0.23,-0.61, 9.66, 14103
25.06, 101643.15, 0.19,-0.50, 9.60, 14108
25.06, 101643.15, 0.21,-0.63, 9.66, 14113
25.06, 101643.15, 0.25,-0.63, 9.69, 14118
25.06, 101643.15, 0.25,-0.59, 9.71, 14123
25.06, 101643.15, 0.27,-0.54, 9.62, 14128
25.06, 101645.13, 0.21,-0.52, 9.58, 14133
25.06, 101645.13, 0.27,-0.54, 9.64, 14138
25.06, 101645.13, 0.23,-0.56, 9.62, 14143
25.06, 101645.13, 0.23,-0.57, 9.62, 14148
25.06, 101645.13, 0.23,-0.56, 9.66, 14153
25.06, 101645.13, 0.23,-0.54, 9.66, 14158
25.06, 101645.13, 0.19,-0.56, 9.62, 14163
25.06, 101643.05, 0.17,-0.56, 9.58, 14168
25.06, 101643.05, 0.25,-0.54, 9.62, 14173
25.06, 101643.05, 0.17,-0.56, 9.62, 14178
25.06, 101643.05, 0.17,-0.56, 9.58, 14183
25.06, 101643.05, 0.25,-0.59, 9.52, 14188
25.06, 101643.05, 0.25,-0.59, 9.46, 14193
25.06, 101643.05, 0.25,-0.48, 9.50, 14198
25.06, 101646.61, 0.27,-0.52, 9.56, 14203
25.06, 101646.61, 0.33,-0.54, 9.58, 14208
25.06, 101646.61, 0.29,-0.56, 9.62, 14213
25.06, 101646.61, 0.21,-0.56, 9.71, 14218
25.06, 101646.61, 0.27,-0.61, 9.58, 14223
25.06, 101646.61, 0.29,-0.61, 9.60, 14228
25.06, 101646.61, 0.29,-0.67, 9.67, 14233
25.06, 101644.20, 0.23,-0.57, 9.69, 14238
25.06, 101644.20, 0.19,-0.57, 9.66, 14243
25.06, 101644.20, 0.21,-0.61, 9.62, 14248
25.06, 101644.20, 0.21,-0.56, 9.60, 14253
25.06, 101644.20, 0.19,-0.61, 9.66, 14258
25.06, 101644.20, 0.21,-0.59, 9.62, 14263
25.06, 101644.20, 0.19,-0.61, 9.67, 14268
25.06, 101640.45, 0.25,-0.59, 9.62, 14273
25.06, 101640.45, 0.23,-0.54, 9.66, 14278
25.06, 101640.45, 0.25,-0.52, 9.56, 14283
25.06, 101640.45, 0.23,-0.57, 9.58, 14288
25.06, 101640.45, 0.23,-0.57, 9.64, 14293
25.06, 101640.45, 0.25,-0.57, 9.66, 14298
25.06, 101640.45, 0.27,-0.56, 9.64, 14303
25.06, 101644.20, 0.27,-0.57, 9.66, 14308
25.06, 101644.20, 0.23,-0.57, 9.71, 14313
25.06, 101644.20, 0.21,-0.52, 9.69, 14318
25.06, 101644.20, 0.25,-0.52, 9.83, 14323
25.06, 101644.20, 0.25,-0.50, 9.52, 14328
25.06, 101644.20, 0.23,-0.46, 9.52, 14333
25.06, 101644.20, 0.25,-0.54, 9.60, 14338
25.06, 101645.02, 0.19,-0.57, 9.62, 14343
25.06, 101645.02, 0.23,-0.50, 9.27, 14348
25.06, 101645.02, 0.33,-0.54, 9.52, 14353
25.06, 101645.02, 0.25,-0.59, 9.60, 14358
25.06, 101645.02, 0.19,-0.63, 9.58, 14363
25.06, 101645.02, 0.21,-0.54, 9.62, 14368
25.06, 101645.02, 0.19,-0.61, 9.64, 14373
25.06, 101644.86, 0.25,-0.57, 9.64, 14378
25.06, 101643.09, 0.19,-0.63, 9.64, 14383
25.06, 101643.09, 0.17,-0.57, 9.67, 14391
25.06, 101643.09, 0.21,-0.57, 9.58, 14395
25.06, 101643.09, 0.21,-0.57, 9.64, 14400
25.06, 101643.09, 0.23,-0.61, 9.71, 14405
25.06, 101643.09, 0.15,-0.57, 9.60, 14410
25.06, 101644.53, 0.19,-0.56, 9.77, 14415
25.06, 101644.53, 0.23,-0.57, 9.73, 14420
25.06, 101644.53, 0.23,-0.59, 9.67, 14425
25.06, 101644.53, 0.23,-0.56, 9.52, 14430
25.06, 101644.53, 0.23,-0.59, 9.69, 14435
25.06, 101644.53, 0.23,-0.61, 9.64, 14440
25.06, 101644.53, 0.29,-0.59, 9.71, 14445
25.06, 101641.45, 0.25,-0.61, 9.64, 14450
25.06, 101641.45, 0.31,-0.57, 9.66, 14455
25.06, 101641.45, 0.29,-0.63, 9.58, 14460
25.06, 101641.45, 0.29,-0.65, 9.54, 14465
25.06, 101641.45, 0.29,-0.63, 9.58, 14470
25.06, 101641.45, 0.17,-0.59, 9.58, 14475
25.06, 101641.45, 0.23,-0.57, 9.66, 14480
25.06, 101644.45, 0.27,-0.61, 9.62, 14485
25.06, 101644.45, 0.29,-0.61, 9.62, 14490
25.06, 101644.45, 0.21,-0.56, 9.58, 14495
25.06, 101644.45, 0.19,-0.63, 9.62, 14500
25.06, 101644.45, 0.19,-0.59, 9.64, 14505
25.06, 101644.45, 0.15,-0.54, 9.66, 14510
25.06, 101644.45, 0.19,-0.52, 9.60, 14515
25.06, 101645.28, 0.21,-0.59, 9.67, 14520
25.06, 101642.59, 0.21,-0.57, 9.67, 14525
25.06, 101642.59, 0.19,-0.59, 9.58, 14530
25.06, 101642.59, 0.21,-0.57, 9.73, 14535
25.06, 101642.59, 0.25,-0.56, 9.62, 14540
25.06, 101642.59, 0.19,-0.63, 9.60, 14545
25.06, 101642.59, 0.19,-0.57, 9.41, 14550
25.06, 101642.59, 0.15,-0.52, 9.52, 14555
25.06, 101643.97, 0.23,-0.56, 9.56, 14560
25.06, 101643.97, 0.31,-0.59, 9.54, 14565
25.06, 101643.97, 0.19,-0.57, 9.67, 14570
25.06, 101643.97, 0.17,-0.57, 9.64, 14575
25.06, 101643.97, 0.13,-0.61, 9.69, 14580
25.06, 101643.97, 0.13,-0.63, 9.62, 14585
25.06, 101643.97, 0.19,-0.56, 9.66, 14590
25.06, 101640.84, 0.23,-0.56, 9.66, 14595
25.06, 101640.84, 0.25,-0.52, 9.67, 14600
25.06, 101640.84, 0.25,-0.56, 9.69, 14605
25.06, 101640.84, 0.23,-0.59, 9.62, 14610
25.06, 101640.84, 0.21,-0.56, 9.60, 14615
25.06, 101640.84, 0.23,-0.57, 9.60, 14620
25.06, 101640.84, 0.21,-0.59, 9.64, 14625
25.06, 101641.56, 0.25,-0.56, 9.64, 14630
25.06, 101641.56, 0.25,-0.59, 9.56, 14635
25.06, 101641.56, 0.31,-0.56, 9.69, 14640
25.06, 101641.56, 0.25,-0.52, 9.73, 14645
25.06, 101641.56, 0.25,-0.46, 9.60, 14650
25.06, 101641.56, 0.27,-0.59, 9.67, 14655
25.06, 101641.56, 0.27,-0.56, 9.60, 14660
25.06, 101644.47, 0.31,-0.56, 9.60, 14665
25.06, 101644.47, 0.29,-0.56, 9.64, 14670
25.06, 101644.47, 0.21,-0.57, 9.71, 14675
25.06, 101644.47, 0.21,-0.61, 9.60, 14680
25.06, 101644.47, 0.21,-0.57, 9.62, 14685
25.06, 101644.47, 0.25,-0.56, 9.62, 14690
25.06, 101644.47, 0.27,-0.59, 9.69, 14695
25.06, 101644.36, 0.21,-0.54, 9.67, 14700
25.06, 101644.36, 0.25,-0.56, 9.69, 14705
25.06, 101644.36, 0.27,-0.57, 9.62, 14710
25.06, 101644.36, 0.21,-0.52, 9.58, 14715
25.06, 101644.36, 0.23,-0.59, 9.62, 14720
25.06, 101644.36, 0.21,-0.59, 9.62, 14725
25.06, 101644.36, 0.17,-0.52, 9.64, 14730
25.06, 101645.36, 0.17,-0.57, 9.64, 14735
25.06, 101645.36, 0.23,-0.50, 9.62, 14740
25.06, 101645.36, 0.23,-0.54, 9.64, 14745
25.06, 101645.36, 0.23,-0.59, 9.75, 14750
25.06, 101645.36, 0.25,-0.61, 9.75, 14755
25.06, 101645.36, 0.36,-0.54, 9.52, 14760
25.06, 101645.36, 0.25,-0.61, 9.64, 14765
25.06, 101643.21, 0.31,-0.61, 9.52, 14770
25.06, 101643.21, 0.21,-0.57, 9.29, 14775
25.06, 101643.21, 0.25,-0.48, 9.52, 14780
25.06, 101643.21, 0.25,-0.61, 9.54, 14785
25.06, 101643.21, 0.21,-0.61, 9.60, 14790
25.06, 101643.21, 0.29,-0.57, 9.62, 14795
25.06, 101643.21, 0.25,-0.63, 9.62, 14800
25.06, 101644.53, 0.23,-0.57, 9.66, 14805
25.06, 101644.53, 0.23,-0.52, 9.64, 14810
25.06, 101644.53, 0.21,-0.54, 9.64, 14815
25.06, 101644.53, 0.21,-0.59, 9.64, 14820
25.06, 101644.53, 0.19,-0.54, 9.60, 14825
25.06, 101644.53, 0.21,-0.54, 9.62, 14830
25.06, 101644.53, 0.21,-0.50, 9.58, 14835
25.06, 101642.00, 0.17,-0.63, 9.64, 14840
25.06, 101642.00, 0.25,-0.61, 9.58, 14845
25.06, 101642.00, 0.23,-0.50, 9.58, 14850
25.06, 101642.00, 0.23,-0.54, 9.64, 14855
25.06, 101642.00, 0.23,-0.61, 9.71, 14860
25.06, 101642.00, 0.27,-0.57, 9.79, 14865
25.06, 101642.00, 0.21,-0.61, 9.62, 14870
25.06, 101643.31, 0.19,-0.59, 9.48, 14875
25.06, 101644.20, 0.25,-0.59, 9.69, 14880
25.06, 101644.20, 0.21,-0.71, 9.52, 14885
25.06, 101644.20, 0.21,-0.57, 9.60, 14893
25.06, 101644.20, 0.27,-0.56, 9.64, 14897
25.06, 101644.20, 0.19,-0.61, 9.62, 14902
25.06, 101644.20, 0.27,-0.52, 9.62, 14907
25.06, 101643.14, 0.23,-0.57, 9.62, 14912
25.06, 101643.14, 0.25,-0.54, 9.64, 14917
25.06, 101643.14, 0.27,-0.56, 9.64, 14922
25.06, 101643.14, 0.23,-0.54, 9.64, 14927
25.06, 101643.14, 0.21,-0.57, 9.62, 14932
25.06, 101643.14, 0.19,-0.59, 9.60, 14937
25.06, 101643.14, 0.17,-0.57, 9.52, 14942
25.06, 101642.55, 0.15,-0.61, 9.60, 14947
25.06, 101642.55, 0.25,-0.52, 9.66, 14952
25.06, 101642.55, 0.27,-0.59, 9.64, 14957
25.06, 101642.55, 0.13,-0.54, 9.58, 14962
25.06, 101642.55, 0.17,-0.59, 9.62, 14967
25.06, 101642.55, 0.21,-0.63, 9.67, 14972
25.06, 101642.55, 0.29,-0.61, 9.52, 14977
25.06, 101643.31, 0.33,-0.54, 9.56, 14982
25.06, 101643.31, 0.34,-0.54, 9.52, 14987
25.06, 101643.31, 0.27,-0.59, 9.62, 14992
25.06, 101643.31, 0.27,-0.59, 9.69, 14997
25.06, 101643.31, 0.25,-0.61, 9.66, 15002
25.06, 101643.81, 0.25,-0.57, 9.62, 15080
25.06, 101643.81, 0.19,-0.57, 9.54, 15085
25.06, 101643.38, 0.17,-0.57, 9.62, 15090
25.06, 101643.38, 0.21,-0.57, 9.64, 15095
25.06, 101643.38, 0.21,-0.57, 9.62, 15100
25.06, 101643.38, 0.23,-0.57, 9.48, 15105
25.06, 101643.38, 0.25,-0.57, 9.62, 15110
25.06, 101643.38, 0.19,-0.63, 9.48, 15115
25.06, 101643.38, 0.25,-0.54, 9.71, 15120
25.06, 101643.87, 0.29,-0.57, 9.77, 15125
25.06, 101643.87, 0.29,-0.54, 9.67, 15130
25.06, 101643.87, 0.31,-0.61, 9.56, 15135
25.06, 101643.87, 0.25,-0.54, 9.52, 15140
25.06, 101643.87, 0.21,-0.59, 9.64, 15145
25.06, 101643.87, 0.19,-0.56, 9.64, 15150
25.06, 101643.87, 0.19,-0.56, 9.64, 15155
25.06, 101641.50, 0.25,-0.56, 9.58, 15160
25.06, 101641.50, 0.25,-0.63, 9.66, 15165
25.06, 101641.50, 0.21,-0.59, 9.64, 15170
25.06, 101641.50, 0.25,-0.59, 9.64, 15175
25.06, 101641.50, 0.23,-0.52, 9.62, 15180
25.06, 101641.50, 0.21,-0.56, 9.64, 15185
25.06, 101641.50, 0.27,-0.57, 9.62, 15190
25.06, 101641.00, 0.27,-0.56, 9.60, 15195
25.06, 101641.00, 0.27,-0.57, 9.69, 15200
25.06, 101641.00, 0.27,-0.54, 9.62, 15205
25.06, 101641.00, 0.25,-0.59, 9.69, 15210
25.06, 101641.00, 0.27,-0.54, 9.73, 15215
25.06, 101641.00, 0.29,-0.44, 9.83, 15220
25.06, 101641.00, 0.19,-0.42, 9.73, 15225
25.06, 101643.48, 0.17,-0.56, 9.54, 15230
25.06, 101643.48, 0.19,-0.56, 9.66, 15235
25.06, 101643.48, 0.17,-0.57, 9.64, 15240
25.06, 101643.48, 0.21,-0.61, 9.75, 15245
25.06, 101643.48, 0.21,-0.52, 9.66, 15250
25.06, 101643.48, 0.17,-0.59, 9.66, 15255
25.06, 101643.48, 0.15,-0.54, 9.58, 15260
25.06, 101643.48, 0.19,-0.54, 9.62, 15265
25.06, 101644.03, 0.25,-0.59, 9.58, 15270
25.06, 101644.03, 0.23,-0.61, 9.64, 15275
25.06, 101644.03, 0.23,-0.56, 9.62, 15280
25.06, 101644.03, 0.27,-0.52, 9.60, 15285
25.06, 101644.03, 0.33,-0.57, 9.66, 15290
25.06, 101644.03, 0.25,-0.54, 9.64, 15295
25.06, 101644.03, 0.27,-0.56, 9.66, 15300
25.06, 101645.36, 0.29,-0.56, 9.66, 15305
25.06, 101645.36, 0.29,-0.56, 9.64, 15310
25.06, 101645.36, 0.27,-0.65, 9.60, 15315
25.06, 101645.36, 0.23,-0.59, 9.69, 15320
25.06, 101645.36, 0.29,-0.59, 9.77, 15325
25.06, 101645.36, 0.21,-0.56, 9.66, 15330
25.06, 101645.36, 0.23,-0.57, 9.66, 15335
25.06, 101644.31, 0.25,-0.57, 9.66, 15340
25.06, 101644.31, 0.21,-0.59, 9.50, 15345
25.06, 101644.31, 0.21,-0.46, 9.58, 15350
25.06, 101644.31, 0.19,-0.63, 9.58, 15355
25.06, 101644.31, 0.19,-0.65, 9.60, 15360
25.06, 101644.31, 0.17,-0.69, 9.60, 15365
25.06, 101644.31, 0.21,-0.59, 9.64, 15370
25.06, 101643.21, 0.23,-0.52, 9.69, 15375
25.06, 101643.21, 0.23,-0.56, 9.67, 15380
25.06, 101643.21, 0.21,-0.52, 9.66, 15385
25.06, 101643.21, 0.21,-0.57, 9.69, 15390
25.06, 101643.21, 0.25,-0.54, 9.60, 15395
25.06, 101643.21, 0.27,-0.56, 9.62, 15400
25.06, 101643.21, 0.19,-0.57, 9.67, 15405
25.06, 101642.33, 0.25,-0.61, 9.60, 15410
25.06, 101642.33, 0.25,-0.59, 9.66, 15415
25.06, 101642.33, 0.19,-0.61, 9.60, 15420
25.06, 101642.33, 0.29,-0.56, 9.56, 15425
25.06, 101642.33, 0.31,-0.59, 9.64, 15430
25.06, 101642.33, 0.27,-0.57, 9.52, 15435
25.06, 101642.33, 0.23,-0.61, 9.56, 15440
25.06, 101643.21, 0.17,-0.48, 9.66, 15445
25.06, 101643.21, 0.27,-0.44, 9.62, 15450
